,participant,trial,order,response,rt,experiment
0,2,1,139,3,4960.45708656311,vision_sound
1,2,2,39,3,9505.40590286255,vision_sound
2,2,3,59,2,984.683036804199,vision_sound
3,2,4,5,3,1895.77317237854,vision_sound
4,2,5,69,2,6250.36692619324,vision_sound
5,2,6,32,1,4174.2570400238,vision_sound
6,2,7,53,3,3359.25602912903,vision_sound
7,2,8,96,1,3912.49394416809,vision_sound
8,2,9,4,1,2655.81393241882,vision_sound
9,2,10,107,1,1556.1158657074,vision_sound
10,2,11,38,3,1402.9598236084,vision_sound
11,2,12,2,1,2086.88497543335,vision_sound
12,2,13,108,1,3556.85210227966,vision_sound
13,2,14,95,3,1450.31309127808,vision_sound
14,2,15,73,1,915.363073348999,vision_sound
15,2,16,141,2,3292.69695281982,vision_sound
16,2,17,101,1,4260.11395454407,vision_sound
17,2,18,97,2,3607.26499557495,vision_sound
18,2,19,78,1,927.589893341064,vision_sound
19,2,20,74,1,3700.95801353455,vision_sound
20,2,21,105,2,784.742832183838,vision_sound
21,2,22,102,3,3216.10307693481,vision_sound
22,2,23,42,3,2363.4729385376,vision_sound
23,2,24,76,3,875.49614906311,vision_sound
24,2,25,36,1,18842.3261642456,vision_sound
25,2,26,60,3,1169.96216773987,vision_sound
26,2,27,46,3,1630.8970451355,vision_sound
27,2,28,99,2,2466.34984016418,vision_sound
28,2,29,14,1,10712.6879692078,vision_sound
29,2,30,26,2,2294.20781135559,vision_sound
30,2,31,79,1,8739.47095870972,vision_sound
31,2,32,129,3,6845.25513648987,vision_sound
32,2,33,7,2,1668.57290267944,vision_sound
33,2,34,117,1,1761.7712020874,vision_sound
34,2,35,21,3,18081.2430381775,vision_sound
35,2,36,122,3,6292.75512695312,vision_sound
36,2,37,19,2,4004.310131073,vision_sound
37,2,38,40,3,1701.33399963379,vision_sound
38,2,39,149,1,1643.95093917847,vision_sound
39,2,40,86,1,1224.40600395203,vision_sound
40,2,41,146,3,1381.34098052979,vision_sound
41,2,42,67,3,5945.47295570374,vision_sound
42,2,43,137,1,3229.09593582153,vision_sound
43,2,44,113,3,3697.87311553955,vision_sound
44,2,45,83,1,6424.53813552856,vision_sound
45,2,46,90,2,4862.02907562256,vision_sound
46,2,47,127,2,1842.29207038879,vision_sound
47,2,48,85,3,5134.16290283203,vision_sound
48,2,49,15,3,4987.37812042236,vision_sound
49,2,50,131,2,2171.47183418274,vision_sound
50,2,51,63,1,9869.43387985229,vision_sound
51,2,52,114,3,4044.67511177063,vision_sound
52,2,53,111,2,2800.75120925903,vision_sound
53,2,54,43,2,16109.1370582581,vision_sound
54,2,55,106,3,2079.43511009216,vision_sound
55,2,56,29,2,6969.01106834412,vision_sound
56,2,57,1,3,25298.9220619202,vision_sound
57,2,58,120,1,3867.23494529724,vision_sound
58,2,59,3,2,7949.67412948608,vision_sound
59,2,60,135,3,2494.18497085571,vision_sound
60,2,61,140,3,3628.1750202179,vision_sound
61,2,62,100,3,3932.86490440369,vision_sound
62,2,63,20,2,8643.74709129333,vision_sound
63,2,64,49,2,6641.08896255493,vision_sound
64,2,65,123,1,1293.6007976532,vision_sound
65,2,66,58,2,13499.7220039368,vision_sound
66,2,67,65,1,1128.93080711365,vision_sound
67,2,68,118,2,3770.60699462891,vision_sound
68,2,69,91,2,2491.47582054138,vision_sound
69,2,70,130,1,2810.3461265564,vision_sound
70,2,71,147,2,1457.01193809509,vision_sound
71,2,72,110,1,1561.439037323,vision_sound
72,2,73,6,2,1353.96289825439,vision_sound
73,2,74,33,3,11607.8810691833,vision_sound
74,2,75,119,1,1940.39487838745,vision_sound
75,2,76,70,1,3188.25697898865,vision_sound
76,2,77,28,2,6076.40814781189,vision_sound
77,2,78,144,2,1572.2439289093,vision_sound
78,2,79,88,3,846.578121185303,vision_sound
79,2,80,89,1,4057.68013000488,vision_sound
80,2,81,27,3,3690.11282920837,vision_sound
81,2,82,45,3,13863.7580871582,vision_sound
82,2,84,64,1,5111.41204833984,vision_sound
83,2,85,23,2,6188.23194503784,vision_sound
84,2,86,109,3,9690.45114517212,vision_sound
85,2,90,121,3,3236.42802238464,vision_sound
86,2,91,138,2,2199.75090026855,vision_sound
87,2,93,148,2,756.515026092529,vision_sound
88,2,94,92,2,5729.28595542908,vision_sound
89,2,97,77,3,1803.39813232422,vision_sound
90,2,98,87,3,1922.86610603333,vision_sound
91,2,99,54,3,3492.93518066406,vision_sound
92,2,100,93,3,1770.427942276,vision_sound
93,2,102,10,2,2205.44099807739,vision_sound
94,2,103,66,1,2096.73404693604,vision_sound
95,2,106,11,3,2114.60614204407,vision_sound
96,2,107,34,1,15609.9369525909,vision_sound
97,2,109,62,3,4631.00004196167,vision_sound
98,2,111,80,1,961.7018699646,vision_sound
99,2,112,35,3,5518.86010169983,vision_sound
100,2,113,18,2,9883.64887237549,vision_sound
101,2,114,57,1,1098.50811958313,vision_sound
102,2,115,72,3,3551.274061203,vision_sound
103,2,118,12,3,2502.37894058228,vision_sound
104,2,121,41,1,1571.07305526733,vision_sound
105,2,122,17,3,4052.74105072021,vision_sound
106,2,123,16,1,9209.95211601257,vision_sound
107,2,126,104,3,2010.07294654846,vision_sound
108,2,127,128,3,2039.41202163696,vision_sound
109,2,129,9,3,2884.32502746582,vision_sound
110,2,132,103,1,3272.05395698547,vision_sound
111,2,133,68,1,4184.61585044861,vision_sound
112,2,139,94,2,3690.60611724854,vision_sound
113,2,140,47,2,1749.66406822205,vision_sound
114,2,142,13,3,5697.13091850281,vision_sound
115,2,143,25,1,2279.68907356262,vision_sound
116,2,144,52,1,2540.70806503296,vision_sound
117,2,145,22,3,5892.26388931274,vision_sound
118,2,148,71,1,3648.20408821106,vision_sound
119,2,149,150,2,2423.12598228455,vision_sound
120,2,154,75,3,1598.64211082458,vision_sound
121,2,156,82,1,4487.40696907043,vision_sound
122,2,158,81,3,2878.93986701965,vision_sound
123,2,163,61,1,5405.05003929138,vision_sound
124,2,166,116,3,4533.14208984375,vision_sound
125,2,170,126,3,3266.27993583679,vision_sound
126,2,173,56,3,2998.87681007385,vision_sound
127,2,179,145,1,1450.53505897522,vision_sound
128,2,183,37,3,2036.7488861084,vision_sound
129,2,186,84,1,1986.38510704041,vision_sound
130,2,190,115,3,2027.59718894958,vision_sound
131,2,192,112,2,3261.9800567627,vision_sound
132,2,196,50,3,4595.58200836182,vision_sound
133,2,207,30,1,5206.66003227234,vision_sound
134,2,210,24,1,2613.23404312134,vision_sound
135,2,214,143,1,1864.30311203003,vision_sound
136,2,215,136,1,1741.03593826294,vision_sound
137,2,223,134,1,1564.29195404053,vision_sound
138,2,254,124,1,1674.97706413269,vision_sound
139,2,283,55,1,1681.02192878723,vision_sound
140,2,289,132,1,1475.86798667908,vision_sound
141,2,297,142,1,1382.01212882996,vision_sound
142,2,302,8,1,3895.86091041565,vision_sound
143,2,306,133,3,2129.13298606873,vision_sound
144,2,307,48,1,5309.55696105957,vision_sound
145,2,316,125,3,1819.85592842102,vision_sound
146,2,319,98,1,4463.63806724548,vision_sound
147,2,326,51,1,2124.11093711853,vision_sound
148,2,332,31,1,6111.8791103363,vision_sound
149,2,380,44,3,3303.70879173279,vision_sound
150,3,1,133,3,2113.56019973755,vision_sound
151,3,2,128,3,2437.31999397278,vision_sound
152,3,3,139,2,807.579040527344,vision_sound
153,3,4,36,3,1366.84012413025,vision_sound
154,3,5,95,2,3181.85496330261,vision_sound
155,3,6,81,1,2374.34601783752,vision_sound
156,3,7,119,3,2369.76599693298,vision_sound
157,3,8,97,1,1162.21904754639,vision_sound
158,3,9,91,1,8229.31909561157,vision_sound
159,3,10,149,2,994.330167770386,vision_sound
160,3,11,141,3,3028.3739566803,vision_sound
161,3,12,88,1,6994.07196044922,vision_sound
162,3,13,11,1,3261.4688873291,vision_sound
163,3,14,23,3,7817.97313690186,vision_sound
164,3,15,87,1,1204.745054245,vision_sound
165,3,16,109,2,1231.84895515442,vision_sound
166,3,17,84,1,1551.50198936462,vision_sound
167,3,18,4,3,9198.55690002441,vision_sound
168,3,19,6,1,2449.97096061707,vision_sound
169,3,20,10,2,8268.19920539856,vision_sound
170,3,21,111,2,1004.63700294495,vision_sound
171,3,22,83,2,2270.35689353943,vision_sound
172,3,23,16,2,3897.54104614258,vision_sound
173,3,24,73,3,756.283044815063,vision_sound
174,3,25,33,3,4488.38090896606,vision_sound
175,3,26,21,3,1193.91489028931,vision_sound
176,3,27,78,3,777.622938156128,vision_sound
177,3,28,17,2,3088.38105201721,vision_sound
178,3,29,118,1,1801.6529083252,vision_sound
179,3,30,100,2,1017.29798316956,vision_sound
180,3,31,77,3,7582.15689659119,vision_sound
181,3,32,136,3,4576.62391662598,vision_sound
182,3,33,123,2,953.366041183472,vision_sound
183,3,34,147,1,5353.85680198669,vision_sound
184,3,35,7,3,5516.86120033264,vision_sound
185,3,36,38,3,1948.38690757751,vision_sound
186,3,37,47,2,2636.63101196289,vision_sound
187,3,38,55,1,7257.07411766052,vision_sound
188,3,39,135,1,2080.18898963928,vision_sound
189,3,40,53,1,3227.24890708923,vision_sound
190,3,41,27,3,5321.51508331299,vision_sound
191,3,42,110,3,1937.824010849,vision_sound
192,3,43,137,1,1646.65007591248,vision_sound
193,3,44,102,3,4749.26114082336,vision_sound
194,3,45,127,1,6023.18716049194,vision_sound
195,3,46,115,2,1508.15606117249,vision_sound
196,3,47,15,2,3067.86108016968,vision_sound
197,3,48,145,3,1642.81415939331,vision_sound
198,3,49,150,3,4098.1240272522,vision_sound
199,3,50,3,1,4857.18107223511,vision_sound
200,3,51,31,3,2581.47215843201,vision_sound
201,3,52,98,1,7770.0560092926,vision_sound
202,3,53,51,2,2586.52997016907,vision_sound
203,3,54,40,2,7257.40098953247,vision_sound
204,3,55,19,2,3639.7750377655,vision_sound
205,3,56,22,1,2146.30007743835,vision_sound
206,3,57,65,3,1155.77483177185,vision_sound
207,3,58,68,1,2234.24696922302,vision_sound
208,3,59,60,3,2049.86810684204,vision_sound
209,3,60,59,3,11149.5480537415,vision_sound
210,3,61,143,3,3811.61785125732,vision_sound
211,3,62,96,3,2371.57297134399,vision_sound
212,3,63,130,2,3470.77798843384,vision_sound
213,3,64,41,2,2833.21595191956,vision_sound
214,3,65,30,3,10527.1799564362,vision_sound
215,3,66,28,3,2238.31295967102,vision_sound
216,3,67,144,1,703.119993209839,vision_sound
217,3,68,140,2,1438.21477890015,vision_sound
218,3,69,8,2,1549.51405525208,vision_sound
219,3,70,32,3,12317.1331882477,vision_sound
220,3,71,126,2,3612.86997795105,vision_sound
221,3,72,86,1,3513.51284980774,vision_sound
222,3,73,49,3,1299.88789558411,vision_sound
223,3,74,129,3,4165.22812843323,vision_sound
224,3,75,50,2,1772.09186553955,vision_sound
225,3,76,121,1,6095.19791603088,vision_sound
226,3,77,13,2,5497.73502349854,vision_sound
227,3,78,14,3,4825.12497901917,vision_sound
228,3,79,106,3,1305.11689186096,vision_sound
229,3,80,57,3,5518.52011680603,vision_sound
230,3,81,138,3,1797.50394821167,vision_sound
231,3,82,5,2,6721.52280807495,vision_sound
232,3,84,131,2,4192.03114509583,vision_sound
233,3,85,35,1,4906.7280292511,vision_sound
234,3,86,105,3,4876.81698799133,vision_sound
235,3,90,1,3,3103.51514816284,vision_sound
236,3,91,82,2,2760.87284088135,vision_sound
237,3,93,74,2,901.437044143677,vision_sound
238,3,94,26,2,5454.0638923645,vision_sound
239,3,97,70,3,2127.43902206421,vision_sound
240,3,98,125,3,4127.5110244751,vision_sound
241,3,99,71,1,9784.79409217834,vision_sound
242,3,100,61,1,3164.03603553772,vision_sound
243,3,102,103,1,3483.37602615356,vision_sound
244,3,103,72,1,2743.28303337097,vision_sound
245,3,106,25,2,4933.33220481873,vision_sound
246,3,107,39,1,1352.36191749573,vision_sound
247,3,109,114,2,7394.9818611145,vision_sound
248,3,111,93,1,861.713886260986,vision_sound
249,3,112,18,3,12785.68983078,vision_sound
250,3,113,42,2,5890.30790328979,vision_sound
251,3,114,148,1,615.039825439453,vision_sound
252,3,115,92,3,3403.88202667236,vision_sound
253,3,118,34,2,3389.37997817993,vision_sound
254,3,121,56,1,1426.47099494934,vision_sound
255,3,122,112,3,4282.37414360046,vision_sound
256,3,123,94,3,2605.86190223694,vision_sound
257,3,126,146,3,1804.31890487671,vision_sound
258,3,127,62,3,1768.46385002136,vision_sound
259,3,129,90,3,2948.23789596558,vision_sound
260,3,132,43,1,14768.5511112213,vision_sound
261,3,133,2,2,3713.1679058075,vision_sound
262,3,139,80,2,2620.9921836853,vision_sound
263,3,140,69,2,1484.61008071899,vision_sound
264,3,142,54,3,3669.76118087769,vision_sound
265,3,143,48,1,1239.76492881775,vision_sound
266,3,144,132,1,5676.13005638123,vision_sound
267,3,145,142,2,2950.86312294006,vision_sound
268,3,148,52,1,1994.76504325867,vision_sound
269,3,149,20,1,4923.26498031616,vision_sound
270,3,154,12,3,1426.07307434082,vision_sound
271,3,156,117,3,4490.41891098022,vision_sound
272,3,158,79,3,2725.45599937439,vision_sound
273,3,163,99,1,6826.984167099,vision_sound
274,3,166,29,2,2935.33611297607,vision_sound
275,3,170,124,3,2785.31384468079,vision_sound
276,3,173,75,2,1840.01088142395,vision_sound
277,3,179,46,1,2315.86599349976,vision_sound
278,3,183,24,3,1293.57504844666,vision_sound
279,3,186,108,1,3854.02297973633,vision_sound
280,3,190,113,3,2375.02098083496,vision_sound
281,3,192,104,1,6999.83811378479,vision_sound
282,3,196,116,3,2758.81195068359,vision_sound
283,3,207,120,2,7203.23705673218,vision_sound
284,3,210,44,1,3364.6080493927,vision_sound
285,3,214,58,1,6993.21389198303,vision_sound
286,3,215,122,1,2689.82195854187,vision_sound
287,3,223,101,1,2809.79108810425,vision_sound
288,3,254,85,1,6741.87397956848,vision_sound
289,3,283,66,2,2817.36588478088,vision_sound
290,3,289,63,1,1283.98513793945,vision_sound
291,3,297,134,1,3002.41684913635,vision_sound
292,3,302,67,1,16255.9418678284,vision_sound
293,3,306,45,3,15464.2050266266,vision_sound
294,3,307,76,3,8373.02708625793,vision_sound
295,3,316,64,3,4974.68400001526,vision_sound
296,3,319,37,2,12615.9851551056,vision_sound
297,3,326,9,1,10275.1169204712,vision_sound
298,3,332,89,2,3293.08795928955,vision_sound
299,3,380,107,1,9558.16602706909,vision_sound
300,4,1,34,3,6234.54904556274,vision_sound
301,4,2,145,2,1161.29183769226,vision_sound
302,4,3,88,2,742.755889892578,vision_sound
303,4,4,31,3,1340.34514427185,vision_sound
304,4,5,46,1,2947.03412055969,vision_sound
305,4,6,33,2,5899.69491958618,vision_sound
306,4,7,24,3,3346.41695022583,vision_sound
307,4,8,137,1,1235.66102981567,vision_sound
308,4,9,69,1,3214.36595916748,vision_sound
309,4,10,74,1,3451.73907279968,vision_sound
310,4,11,96,3,2438.70210647583,vision_sound
311,4,12,21,1,3229.47001457214,vision_sound
312,4,13,104,2,3179.2938709259,vision_sound
313,4,14,3,3,2615.72289466858,vision_sound
314,4,15,120,1,866.541862487793,vision_sound
315,4,16,51,2,1636.34085655212,vision_sound
316,4,17,23,1,1751.04713439941,vision_sound
317,4,18,146,2,1723.05417060852,vision_sound
318,4,19,141,1,462.619781494141,vision_sound
319,4,20,20,1,3320.17207145691,vision_sound
320,4,21,2,2,1551.73087120056,vision_sound
321,4,22,129,2,2539.56890106201,vision_sound
322,4,23,144,2,2883.48889350891,vision_sound
323,4,24,140,3,613.281965255737,vision_sound
324,4,25,41,1,3413.31815719604,vision_sound
325,4,26,103,3,987.35499382019,vision_sound
326,4,27,118,3,1091.99786186218,vision_sound
327,4,28,123,1,1640.32506942749,vision_sound
328,4,29,95,1,2031.27813339233,vision_sound
329,4,30,32,2,634.299039840698,vision_sound
330,4,31,125,1,2397.37296104431,vision_sound
331,4,32,92,3,1752.84099578857,vision_sound
332,4,33,56,2,1071.33603096008,vision_sound
333,4,34,113,1,1623.1541633606,vision_sound
334,4,35,16,1,3016.8240070343,vision_sound
335,4,36,68,3,1910.1619720459,vision_sound
336,4,37,76,1,1586.46512031555,vision_sound
337,4,38,19,1,3903.02276611328,vision_sound
338,4,39,128,1,2024.53422546387,vision_sound
339,4,40,55,1,3701.20000839233,vision_sound
340,4,41,127,1,1136.34896278381,vision_sound
341,4,42,58,3,4996.05488777161,vision_sound
342,4,43,4,1,2979.29716110229,vision_sound
343,4,44,13,2,1902.19616889954,vision_sound
344,4,45,15,1,5504.10294532776,vision_sound
345,4,46,49,2,3104.52699661255,vision_sound
346,4,47,135,3,3011.2829208374,vision_sound
347,4,48,72,3,2089.43104743958,vision_sound
348,4,49,25,2,7212.68105506897,vision_sound
349,4,50,117,2,1470.1509475708,vision_sound
350,4,51,136,3,3142.01903343201,vision_sound
351,4,52,47,1,4279.46805953979,vision_sound
352,4,53,66,1,1210.20007133484,vision_sound
353,4,54,73,3,2885.13493537903,vision_sound
354,4,55,9,2,4088.68408203125,vision_sound
355,4,56,44,1,2706.65884017944,vision_sound
356,4,57,52,3,917.282819747925,vision_sound
357,4,58,77,3,2782.15312957764,vision_sound
358,4,59,26,3,5689.17512893677,vision_sound
359,4,60,106,2,4371.79088592529,vision_sound
360,4,61,93,1,2501.50918960571,vision_sound
361,4,62,147,1,1728.54804992676,vision_sound
362,4,63,61,1,1281.5899848938,vision_sound
363,4,64,97,2,5985.56399345398,vision_sound
364,4,65,67,1,4459.57088470459,vision_sound
365,4,66,30,2,3159.04784202576,vision_sound
366,4,67,64,1,825.982093811035,vision_sound
367,4,68,150,2,1148.39601516724,vision_sound
368,4,69,50,2,968.420028686523,vision_sound
369,4,70,86,1,3118.5040473938,vision_sound
370,4,71,71,2,3797.9907989502,vision_sound
371,4,72,12,1,2204.61487770081,vision_sound
372,4,73,81,3,1011.5909576416,vision_sound
373,4,74,48,3,3362.17713356018,vision_sound
374,4,75,36,1,5355.27014732361,vision_sound
375,4,76,134,3,8115.2331829071,vision_sound
376,4,77,91,3,906.666994094849,vision_sound
377,4,78,70,3,2392.80915260315,vision_sound
378,4,79,84,3,811.609029769897,vision_sound
379,4,80,54,3,5738.48700523376,vision_sound
380,4,81,6,3,9330.09600639343,vision_sound
381,4,82,116,2,4527.27699279785,vision_sound
382,4,84,35,1,3290.87996482849,vision_sound
383,4,85,98,1,1190.11187553406,vision_sound
384,4,86,10,3,3227.0839214325,vision_sound
385,4,90,114,3,2470.98207473755,vision_sound
386,4,91,111,2,2587.69607543945,vision_sound
387,4,93,87,2,743.001937866211,vision_sound
388,4,94,119,3,3034.23500061035,vision_sound
389,4,97,27,3,4308.64310264587,vision_sound
390,4,98,89,3,3428.40194702148,vision_sound
391,4,99,38,1,3465.65914154053,vision_sound
392,4,100,82,3,2267.1480178833,vision_sound
393,4,102,143,1,3503.97896766663,vision_sound
394,4,103,110,1,1231.54902458191,vision_sound
395,4,106,100,3,1634.16385650635,vision_sound
396,4,107,102,1,1383.88991355896,vision_sound
397,4,109,60,2,5431.76317214966,vision_sound
398,4,111,83,1,769.438982009888,vision_sound
399,4,112,62,2,2207.00907707214,vision_sound
400,4,113,8,1,1720.34096717834,vision_sound
401,4,114,126,1,880.051136016846,vision_sound
402,4,115,105,2,2638.32712173462,vision_sound
403,4,118,133,3,2082.19289779663,vision_sound
404,4,121,53,1,3942.05403327942,vision_sound
405,4,122,63,3,3396.2140083313,vision_sound
406,4,123,138,3,2455.94811439514,vision_sound
407,4,126,29,3,1315.55390357971,vision_sound
408,4,127,142,1,1411.1499786377,vision_sound
409,4,129,108,1,4482.2211265564,vision_sound
410,4,132,17,3,4600.68893432617,vision_sound
411,4,133,149,2,1783.23101997375,vision_sound
412,4,139,75,2,3523.38004112244,vision_sound
413,4,140,148,2,553.138017654419,vision_sound
414,4,142,124,2,2099.34306144714,vision_sound
415,4,143,45,1,2231.54091835022,vision_sound
416,4,144,37,3,2867.64812469482,vision_sound
417,4,145,139,2,3077.93498039246,vision_sound
418,4,148,42,1,3013.8988494873,vision_sound
419,4,149,80,2,1423.11716079712,vision_sound
420,4,154,122,3,605.7288646698,vision_sound
421,4,156,57,3,1973.3099937439,vision_sound
422,4,158,11,3,1765.82193374634,vision_sound
423,4,163,79,1,1309.96704101562,vision_sound
424,4,166,1,2,2205.71112632751,vision_sound
425,4,170,7,2,1818.73798370361,vision_sound
426,4,173,99,1,1719.01917457581,vision_sound
427,4,179,115,1,3000.11515617371,vision_sound
428,4,183,65,3,1014.36305046082,vision_sound
429,4,186,59,1,2423.44403266907,vision_sound
430,4,190,43,3,1970.00503540039,vision_sound
431,4,192,28,1,3262.88509368896,vision_sound
432,4,196,90,3,4219.22993659973,vision_sound
433,4,207,39,2,10086.2259864807,vision_sound
434,4,210,132,1,1566.42985343933,vision_sound
435,4,214,22,2,4257.04383850098,vision_sound
436,4,215,130,1,1450.70695877075,vision_sound
437,4,223,121,2,1682.42692947388,vision_sound
438,4,254,109,1,2586.04598045349,vision_sound
439,4,283,5,2,4305.4530620575,vision_sound
440,4,289,94,1,1152.81009674072,vision_sound
441,4,297,18,1,3143.24402809143,vision_sound
442,4,302,131,1,1802.94585227966,vision_sound
443,4,306,101,3,2262.02201843262,vision_sound
444,4,307,14,1,2528.92398834229,vision_sound
445,4,316,40,3,2780.26604652405,vision_sound
446,4,319,112,1,3385.38312911987,vision_sound
447,4,326,85,2,2118.88289451599,vision_sound
448,4,332,107,1,3519.21796798706,vision_sound
449,4,380,78,1,2284.35516357422,vision_sound
450,5,1,128,2,1116.4219379425,vision_sound
451,5,2,113,3,2067.29197502136,vision_sound
452,5,3,80,2,805.333852767944,vision_sound
453,5,4,144,3,582.143783569336,vision_sound
454,5,5,35,3,7082.02791213989,vision_sound
455,5,6,111,1,4356.07886314392,vision_sound
456,5,7,137,3,2340.14296531677,vision_sound
457,5,8,100,1,5065.12999534607,vision_sound
458,5,9,132,1,1085.04199981689,vision_sound
459,5,10,33,1,3223.38581085205,vision_sound
460,5,11,49,3,1189.82410430908,vision_sound
461,5,12,105,1,1376.05309486389,vision_sound
462,5,13,62,1,5606.93502426147,vision_sound
463,5,14,15,3,3336.66610717773,vision_sound
464,5,15,69,1,1702.32582092285,vision_sound
465,5,16,52,2,2886.46101951599,vision_sound
466,5,17,50,1,6716.57705307007,vision_sound
467,5,18,54,2,1679.58998680115,vision_sound
468,5,19,58,1,939.738035202026,vision_sound
469,5,20,53,1,2835.07299423218,vision_sound
470,5,21,123,2,541.63384437561,vision_sound
471,5,22,90,2,1891.21603965759,vision_sound
472,5,23,142,3,1173.46501350403,vision_sound
473,5,24,95,3,891.222953796387,vision_sound
474,5,25,145,2,4424.97110366821,vision_sound
475,5,26,104,3,438.019990921021,vision_sound
476,5,27,56,3,1136.21997833252,vision_sound
477,5,28,97,2,1825.3390789032,vision_sound
478,5,29,47,1,3096.48084640503,vision_sound
479,5,30,42,2,5279.83903884888,vision_sound
480,5,31,147,1,3129.14204597473,vision_sound
481,5,32,115,1,2136.22999191284,vision_sound
482,5,33,43,2,1156.05998039246,vision_sound
483,5,34,3,3,4963.2351398468,vision_sound
484,5,35,107,1,8491.01185798645,vision_sound
485,5,36,103,3,2558.48598480225,vision_sound
486,5,37,133,2,4665.34399986267,vision_sound
487,5,38,114,3,2018.75877380371,vision_sound
488,5,39,89,3,2357.64193534851,vision_sound
489,5,40,110,1,4726.3650894165,vision_sound
490,5,41,9,3,2824.97978210449,vision_sound
491,5,42,134,3,2496.73795700073,vision_sound
492,5,43,61,3,4610.30101776123,vision_sound
493,5,44,2,3,4778.17916870117,vision_sound
494,5,45,85,1,2748.40807914734,vision_sound
495,5,46,79,2,1695.27792930603,vision_sound
496,5,47,7,3,2785.86792945862,vision_sound
497,5,48,136,3,4208.56094360352,vision_sound
498,5,49,98,3,1803.96509170532,vision_sound
499,5,50,126,2,6849.22409057617,vision_sound
500,5,51,116,1,2657.14716911316,vision_sound
501,5,52,41,3,8973.16193580627,vision_sound
502,5,53,121,2,1817.32416152954,vision_sound
503,5,54,149,3,5743.38984489441,vision_sound
504,5,55,71,3,2416.66793823242,vision_sound
505,5,56,4,2,7895.56503295898,vision_sound
506,5,57,60,3,794.770956039429,vision_sound
507,5,58,68,1,5193.39680671692,vision_sound
508,5,59,39,3,6045.98689079285,vision_sound
509,5,60,77,3,3049.66998100281,vision_sound
510,5,61,28,3,3887.60900497437,vision_sound
511,5,62,83,3,8108.66403579712,vision_sound
512,5,63,125,2,3355.44300079346,vision_sound
513,5,64,87,2,4314.28098678589,vision_sound
514,5,65,119,1,1605.47995567322,vision_sound
515,5,66,150,2,3730.53503036499,vision_sound
516,5,67,146,1,474.993944168091,vision_sound
517,5,68,38,2,2255.75804710388,vision_sound
518,5,69,30,2,1222.84317016602,vision_sound
519,5,70,96,1,2398.93698692322,vision_sound
520,5,71,36,1,2944.63992118835,vision_sound
521,5,72,118,1,4632.5089931488,vision_sound
522,5,73,73,3,1394.69599723816,vision_sound
523,5,74,75,3,3306.8630695343,vision_sound
524,5,75,32,1,2111.28211021423,vision_sound
525,5,76,8,1,3688.97294998169,vision_sound
526,5,77,65,2,4670.70508003235,vision_sound
527,5,78,117,2,959.734916687012,vision_sound
528,5,79,20,3,1407.14383125305,vision_sound
529,5,80,66,1,3048.13098907471,vision_sound
530,5,81,84,3,2877.79808044434,vision_sound
531,5,82,27,2,3875.97584724426,vision_sound
532,5,84,22,1,5273.53310585022,vision_sound
533,5,85,16,2,3006.86597824097,vision_sound
534,5,86,34,2,10233.7789535522,vision_sound
535,5,90,94,3,1082.01289176941,vision_sound
536,5,91,76,2,3804.65984344482,vision_sound
537,5,93,139,2,641.670942306519,vision_sound
538,5,94,102,2,5012.32099533081,vision_sound
539,5,97,14,3,1465.91591835022,vision_sound
540,5,98,86,3,1804.09693717957,vision_sound
541,5,99,138,3,9224.25317764282,vision_sound
542,5,100,108,3,1300.52304267883,vision_sound
543,5,102,13,1,4491.17302894592,vision_sound
544,5,103,45,1,1950.5729675293,vision_sound
545,5,106,122,3,1672.70517349243,vision_sound
546,5,107,21,3,3667.97709465027,vision_sound
547,5,109,40,3,8944.14210319519,vision_sound
548,5,111,120,1,3776.85713768005,vision_sound
549,5,112,46,3,4790.82489013672,vision_sound
550,5,113,109,2,3619.40097808838,vision_sound
551,5,114,129,1,556.205034255981,vision_sound
552,5,115,148,3,4759.01699066162,vision_sound
553,5,118,81,3,2339.20407295227,vision_sound
554,5,121,25,1,4330.32202720642,vision_sound
555,5,122,112,3,1123.23617935181,vision_sound
556,5,123,143,1,1059.66305732727,vision_sound
557,5,126,91,3,1312.93392181396,vision_sound
558,5,127,12,3,2867.1350479126,vision_sound
559,5,129,10,2,7067.42191314697,vision_sound
560,5,132,135,1,2683.11786651611,vision_sound
561,5,133,57,1,5033.38503837585,vision_sound
562,5,139,131,2,2826.62105560303,vision_sound
563,5,140,37,2,1295.73202133179,vision_sound
564,5,142,63,2,2128.90911102295,vision_sound
565,5,143,130,1,1858.9940071106,vision_sound
566,5,144,74,1,3502.54392623901,vision_sound
567,5,145,67,2,6080.17683029175,vision_sound
568,5,148,127,1,1239.40992355347,vision_sound
569,5,149,48,2,2369.84395980835,vision_sound
570,5,154,101,3,782.196044921875,vision_sound
571,5,156,6,1,4389.16516304016,vision_sound
572,5,158,11,3,2783.34498405457,vision_sound
573,5,163,59,1,6438.77911567688,vision_sound
574,5,166,24,2,3610.2819442749,vision_sound
575,5,170,51,2,1892.28105545044,vision_sound
576,5,173,18,2,1675.65894126892,vision_sound
577,5,179,31,1,6207.72504806519,vision_sound
578,5,183,1,3,2327.34107971191,vision_sound
579,5,186,70,1,3823.64702224731,vision_sound
580,5,190,93,3,1550.99296569824,vision_sound
581,5,192,106,1,3033.65588188171,vision_sound
582,5,196,17,3,4115.54193496704,vision_sound
583,5,207,82,1,3831.25495910645,vision_sound
584,5,210,26,1,3796.6570854187,vision_sound
585,5,214,23,1,7059.23295021057,vision_sound
586,5,215,99,1,1954.48184013367,vision_sound
587,5,223,72,1,1629.05406951904,vision_sound
588,5,254,29,1,6476.26495361328,vision_sound
589,5,283,5,1,5363.19494247437,vision_sound
590,5,289,44,1,6599.05099868774,vision_sound
591,5,297,55,1,2097.23711013794,vision_sound
592,5,302,141,1,1403.29599380493,vision_sound
593,5,306,92,3,1666.91899299622,vision_sound
594,5,307,140,1,3220.73698043823,vision_sound
595,5,316,124,3,947.199106216431,vision_sound
596,5,319,19,2,7924.0288734436,vision_sound
597,5,326,78,1,2146.86608314514,vision_sound
598,5,332,88,1,2253.17716598511,vision_sound
599,5,380,64,3,5092.00477600098,vision_sound
600,6,1,118,3,2170.40181159973,vision_sound
601,6,2,122,3,1879.22501564026,vision_sound
602,6,3,142,2,376.405954360962,vision_sound
603,6,4,78,3,894.264936447144,vision_sound
604,6,5,59,3,793.371915817261,vision_sound
605,6,6,26,2,1356.13417625427,vision_sound
606,6,7,21,3,947.848081588745,vision_sound
607,6,8,68,1,743.363857269287,vision_sound
608,6,9,35,1,931.379079818726,vision_sound
609,6,10,93,2,378.767967224121,vision_sound
610,6,11,99,3,511.947154998779,vision_sound
611,6,12,74,1,600.237846374512,vision_sound
612,6,13,15,1,877.16007232666,vision_sound
613,6,14,12,3,616.575002670288,vision_sound
614,6,15,44,1,741.323947906494,vision_sound
615,6,16,13,1,565.325021743774,vision_sound
616,6,17,98,3,1540.8341884613,vision_sound
617,6,18,33,1,600.864171981812,vision_sound
618,6,19,107,1,715.223073959351,vision_sound
619,6,20,22,1,803.892135620117,vision_sound
620,6,21,14,2,442.766904830933,vision_sound
621,6,22,46,2,1335.5929851532,vision_sound
622,6,23,49,3,715.945959091187,vision_sound
623,6,24,79,3,486.968994140625,vision_sound
624,6,25,132,2,2428.17711830139,vision_sound
625,6,26,25,3,721.55499458313,vision_sound
626,6,27,73,3,543.498992919922,vision_sound
627,6,28,31,3,1037.04309463501,vision_sound
628,6,29,77,3,1316.97106361389,vision_sound
629,6,30,88,2,846.993207931519,vision_sound
630,6,31,54,2,540.945053100586,vision_sound
631,6,32,125,2,1762.39705085754,vision_sound
632,6,33,23,2,455.848217010498,vision_sound
633,6,34,108,1,912.671089172363,vision_sound
634,6,35,51,2,855.080127716064,vision_sound
635,6,36,119,3,849.809169769287,vision_sound
636,6,37,87,1,1387.96305656433,vision_sound
637,6,38,19,3,882.109880447388,vision_sound
638,6,39,66,1,1314.24498558044,vision_sound
639,6,40,58,1,988.034009933472,vision_sound
640,6,41,37,3,1030.25603294373,vision_sound
641,6,42,85,3,793.02191734314,vision_sound
642,6,43,143,3,2396.70014381409,vision_sound
643,6,44,47,3,819.119930267334,vision_sound
644,6,45,83,1,1107.52201080322,vision_sound
645,6,46,75,3,759.601831436157,vision_sound
646,6,47,64,2,1089.3440246582,vision_sound
647,6,48,144,3,1482.37085342407,vision_sound
648,6,49,149,3,1202.41498947144,vision_sound
649,6,50,133,2,1250.25916099548,vision_sound
650,6,51,129,1,6198.84490966797,vision_sound
651,6,52,62,3,952.717065811157,vision_sound
652,6,53,145,2,3012.75897026062,vision_sound
653,6,54,4,2,1138.592004776,vision_sound
654,6,55,96,3,928.409814834595,vision_sound
655,6,56,63,2,2085.9968662262,vision_sound
656,6,57,18,3,868.098020553589,vision_sound
657,6,58,104,1,1974.57313537598,vision_sound
658,6,59,113,1,1210.20293235779,vision_sound
659,6,60,89,2,1562.88409233093,vision_sound
660,6,61,131,3,1994.58003044128,vision_sound
661,6,62,80,1,1478.40905189514,vision_sound
662,6,63,94,1,581.246137619019,vision_sound
663,6,64,53,2,659.96789932251,vision_sound
664,6,65,130,1,1455.41501045227,vision_sound
665,6,66,138,2,1049.52001571655,vision_sound
666,6,67,146,1,602.158069610596,vision_sound
667,6,68,11,2,936.002016067505,vision_sound
668,6,69,76,2,470.244884490967,vision_sound
669,6,70,69,1,656.131982803345,vision_sound
670,6,71,2,2,823.969841003418,vision_sound
671,6,72,91,2,1431.78105354309,vision_sound
672,6,73,147,3,697.268962860107,vision_sound
673,6,74,42,3,4931.16807937622,vision_sound
674,6,75,29,1,2111.9179725647,vision_sound
675,6,76,82,1,2967.40293502808,vision_sound
676,6,77,65,3,640.63286781311,vision_sound
677,6,78,141,1,867.144823074341,vision_sound
678,6,79,24,3,460.839986801147,vision_sound
679,6,80,28,1,1883.98599624634,vision_sound
680,6,81,5,3,1677.74200439453,vision_sound
681,6,82,86,1,1126.77884101868,vision_sound
682,6,84,114,1,559.001922607422,vision_sound
683,6,85,110,1,921.376943588257,vision_sound
684,6,86,16,3,1125.96201896667,vision_sound
685,6,90,135,3,903.578996658325,vision_sound
686,6,91,70,2,696.274042129517,vision_sound
687,6,93,9,2,625.356197357178,vision_sound
688,6,94,6,2,1238.56782913208,vision_sound
689,6,97,20,2,1134.07492637634,vision_sound
690,6,98,126,2,3081.91084861755,vision_sound
691,6,99,32,3,687.115907669067,vision_sound
692,6,100,97,3,505.830049514771,vision_sound
693,6,102,56,2,1652.60195732117,vision_sound
694,6,103,36,1,801.973104476929,vision_sound
695,6,106,121,3,423.975944519043,vision_sound
696,6,107,124,1,1987.86282539368,vision_sound
697,6,109,137,2,3130.04779815674,vision_sound
698,6,111,27,1,807.240009307861,vision_sound
699,6,112,43,3,1272.1860408783,vision_sound
700,6,113,40,2,1449.02205467224,vision_sound
701,6,114,81,1,681.665182113647,vision_sound
702,6,115,148,3,646.960973739624,vision_sound
703,6,118,123,3,998.948812484741,vision_sound
704,6,121,60,1,686.691999435425,vision_sound
705,6,122,109,3,994.916915893555,vision_sound
706,6,123,112,1,898.339033126831,vision_sound
707,6,126,134,3,1201.46012306213,vision_sound
708,6,127,17,3,1006.77704811096,vision_sound
709,6,129,72,2,1173.907995224,vision_sound
710,6,132,120,2,1428.66516113281,vision_sound
711,6,133,100,1,1243.19911003113,vision_sound
712,6,139,61,2,672.335147857666,vision_sound
713,6,140,34,2,493.618011474609,vision_sound
714,6,142,111,2,933.438062667847,vision_sound
715,6,143,103,1,1135.84089279175,vision_sound
716,6,144,117,1,628.115892410278,vision_sound
717,6,145,10,3,1571.59805297852,vision_sound
718,6,148,50,1,626.037120819092,vision_sound
719,6,149,48,2,1110.35704612732,vision_sound
720,6,154,95,3,662.514925003052,vision_sound
721,6,156,128,3,2366.56594276428,vision_sound
722,6,158,90,3,903.601884841919,vision_sound
723,6,163,150,1,773.35000038147,vision_sound
724,6,166,105,3,1055.33599853516,vision_sound
725,6,170,92,3,387.470006942749,vision_sound
726,6,173,71,3,615.167856216431,vision_sound
727,6,179,55,1,393.002033233643,vision_sound
728,6,183,30,3,567.480087280273,vision_sound
729,6,186,38,1,685.193061828613,vision_sound
730,6,190,84,3,652.443885803223,vision_sound
731,6,192,136,2,2022.56417274475,vision_sound
732,6,196,102,3,1551.68890953064,vision_sound
733,6,207,3,1,2532.30905532837,vision_sound
734,6,210,8,1,1031.52298927307,vision_sound
735,6,214,39,1,720.15905380249,vision_sound
736,6,215,116,1,860.852003097534,vision_sound
737,6,223,115,1,670.555114746094,vision_sound
738,6,254,67,1,840.565919876099,vision_sound
739,6,283,41,1,2728.66702079773,vision_sound
740,6,289,106,1,1028.66888046265,vision_sound
741,6,297,139,1,937.361001968384,vision_sound
742,6,302,7,2,1288.75207901001,vision_sound
743,6,306,1,2,618.252038955688,vision_sound
744,6,307,140,1,986.904144287109,vision_sound
745,6,316,101,3,819.721937179565,vision_sound
746,6,319,45,1,1122.60699272156,vision_sound
747,6,326,52,1,914.376974105835,vision_sound
748,6,332,57,1,680.480003356934,vision_sound
749,6,380,127,3,2272.20988273621,vision_sound
750,7,1,41,1,2393.15414428711,vision_sound
751,7,2,70,1,3628.5240650177,vision_sound
752,7,3,10,2,1220.28589248657,vision_sound
753,7,4,29,3,1193.73488426208,vision_sound
754,7,5,49,2,3794.11482810974,vision_sound
755,7,6,72,2,3332.18479156494,vision_sound
756,7,7,127,3,3024.79290962219,vision_sound
757,7,8,5,1,1445.14894485474,vision_sound
758,7,9,65,1,4408.06293487549,vision_sound
759,7,10,144,3,1615.58222770691,vision_sound
760,7,11,117,3,1877.88987159729,vision_sound
761,7,12,6,1,4929.75497245789,vision_sound
762,7,13,64,1,1890.81716537476,vision_sound
763,7,14,51,3,3355.67307472229,vision_sound
764,7,15,130,1,1971.60005569458,vision_sound
765,7,16,2,3,1249.19891357422,vision_sound
766,7,17,147,1,3913.5320186615,vision_sound
767,7,18,134,2,5123.50702285767,vision_sound
768,7,19,94,1,761.430025100708,vision_sound
769,7,20,34,3,2824.16415214539,vision_sound
770,7,21,111,2,793.086051940918,vision_sound
771,7,22,126,2,3250.76007843018,vision_sound
772,7,23,61,2,2078.93896102905,vision_sound
773,7,24,102,3,623.924016952515,vision_sound
774,7,25,50,2,5219.04110908508,vision_sound
775,7,26,66,3,1049.87502098083,vision_sound
776,7,27,79,3,1017.92621612549,vision_sound
777,7,28,97,1,1518.0778503418,vision_sound
778,7,29,37,1,3026.56579017639,vision_sound
779,7,30,84,2,1068.9549446106,vision_sound
780,7,31,122,1,1189.64719772339,vision_sound
781,7,32,128,1,2057.54995346069,vision_sound
782,7,33,148,2,890.469074249268,vision_sound
783,7,34,113,3,2432.87301063538,vision_sound
784,7,35,129,3,1767.52495765686,vision_sound
785,7,36,96,3,3042.38200187683,vision_sound
786,7,37,62,2,3908.51211547852,vision_sound
787,7,38,35,1,7083.340883255,vision_sound
788,7,39,116,1,2415.11797904968,vision_sound
789,7,40,112,1,2827.51107215881,vision_sound
790,7,41,52,3,2347.04089164734,vision_sound
791,7,42,58,1,3816.52402877808,vision_sound
792,7,43,115,1,1954.96296882629,vision_sound
793,7,44,28,2,1610.94808578491,vision_sound
794,7,45,100,2,2455.49321174622,vision_sound
795,7,46,73,2,4877.53105163574,vision_sound
796,7,47,17,2,1703.74703407288,vision_sound
797,7,48,63,3,1739.40801620483,vision_sound
798,7,49,145,2,2466.46094322205,vision_sound
799,7,50,23,2,5394.95301246643,vision_sound
800,7,51,135,3,1978.24501991272,vision_sound
801,7,52,46,1,5965.77405929565,vision_sound
802,7,53,78,2,1103.83009910583,vision_sound
803,7,54,149,3,2656.30507469177,vision_sound
804,7,55,11,2,3435.791015625,vision_sound
805,7,56,26,1,4751.21903419495,vision_sound
806,7,57,91,3,742.925882339478,vision_sound
807,7,58,136,3,1222.25117683411,vision_sound
808,7,59,36,3,2849.86996650696,vision_sound
809,7,60,80,1,1615.9770488739,vision_sound
810,7,61,98,1,3435.61410903931,vision_sound
811,7,62,82,1,3076.10487937927,vision_sound
812,7,63,103,1,4068.24994087219,vision_sound
813,7,64,32,2,4050.43601989746,vision_sound
814,7,65,3,1,2786.18097305298,vision_sound
815,7,66,87,3,3318.51196289062,vision_sound
816,7,67,121,1,580.131053924561,vision_sound
817,7,68,77,2,1760.66207885742,vision_sound
818,7,69,101,2,1029.5569896698,vision_sound
819,7,70,150,1,2570.16181945801,vision_sound
820,7,71,131,2,4638.2999420166,vision_sound
821,7,72,90,3,1638.80896568298,vision_sound
822,7,73,39,3,1143.00203323364,vision_sound
823,7,74,67,2,2462.80694007874,vision_sound
824,7,75,19,1,1657.89794921875,vision_sound
825,7,76,31,1,3873.09098243713,vision_sound
826,7,77,86,2,4438.4081363678,vision_sound
827,7,78,16,1,2164.05391693115,vision_sound
828,7,79,95,3,1030.77483177185,vision_sound
829,7,80,24,3,2873.32606315613,vision_sound
830,7,81,109,3,3432.89089202881,vision_sound
831,7,82,85,3,1329.16188240051,vision_sound
832,7,84,105,1,2431.09393119812,vision_sound
833,7,85,137,2,1665.9460067749,vision_sound
834,7,86,83,3,5183.47311019897,vision_sound
835,7,90,9,3,2083.11700820923,vision_sound
836,7,91,110,2,2470.24703025818,vision_sound
837,7,93,45,2,1121.31690979004,vision_sound
838,7,94,57,2,2918.68996620178,vision_sound
839,7,97,104,2,3302.90198326111,vision_sound
840,7,98,106,1,2060.24694442749,vision_sound
841,7,99,14,1,4726.31311416626,vision_sound
842,7,100,71,1,2341.96400642395,vision_sound
843,7,102,107,2,2610.57305335999,vision_sound
844,7,103,81,2,1575.00100135803,vision_sound
845,7,106,44,2,4824.05209541321,vision_sound
846,7,107,21,1,2015.00606536865,vision_sound
847,7,109,43,2,3053.37309837341,vision_sound
848,7,111,118,1,683.822870254517,vision_sound
849,7,112,8,2,2147.66907691956,vision_sound
850,7,113,30,1,3368.12591552734,vision_sound
851,7,114,92,1,1730.11994361877,vision_sound
852,7,115,55,3,2557.90996551514,vision_sound
853,7,118,125,2,1924.94702339172,vision_sound
854,7,121,1,2,1251.6028881073,vision_sound
855,7,122,22,1,2258.53681564331,vision_sound
856,7,123,124,1,1197.01194763184,vision_sound
857,7,126,12,3,2662.8589630127,vision_sound
858,7,127,42,3,2670.76992988586,vision_sound
859,7,129,89,1,1698.94599914551,vision_sound
860,7,132,13,1,1907.64904022217,vision_sound
861,7,133,99,2,2183.37488174438,vision_sound
862,7,139,74,2,2306.401014328,vision_sound
863,7,140,141,1,1801.43809318542,vision_sound
864,7,142,56,2,3484.2541217804,vision_sound
865,7,143,4,3,3063.09103965759,vision_sound
866,7,144,88,1,3284.49821472168,vision_sound
867,7,145,93,2,2319.74601745605,vision_sound
868,7,148,7,1,3064.18895721436,vision_sound
869,7,149,15,2,2914.28399085999,vision_sound
870,7,154,146,3,2144.97685432434,vision_sound
871,7,156,27,3,2456.23707771301,vision_sound
872,7,158,139,3,2695.93405723572,vision_sound
873,7,163,20,1,2615.64588546753,vision_sound
874,7,166,75,3,4837.41497993469,vision_sound
875,7,170,143,2,2684.97395515442,vision_sound
876,7,173,59,2,1436.74802780151,vision_sound
877,7,179,54,3,3169.0080165863,vision_sound
878,7,183,25,3,1621.73891067505,vision_sound
879,7,186,123,2,1140.21110534668,vision_sound
880,7,190,18,3,1250.90289115906,vision_sound
881,7,192,60,2,2546.75388336182,vision_sound
882,7,196,69,3,4777.96101570129,vision_sound
883,7,207,119,1,2306.7729473114,vision_sound
884,7,210,114,1,1086.17496490479,vision_sound
885,7,214,33,3,4826.09486579895,vision_sound
886,7,215,120,1,1401.97682380676,vision_sound
887,7,223,53,3,4233.39700698853,vision_sound
888,7,254,108,1,3142.52710342407,vision_sound
889,7,283,38,3,7214.05982971191,vision_sound
890,7,289,48,2,2976.38893127441,vision_sound
891,7,297,40,3,5985.71300506592,vision_sound
892,7,302,140,1,5628.51881980896,vision_sound
893,7,306,133,3,3111.30595207214,vision_sound
894,7,307,142,1,3876.81221961975,vision_sound
895,7,316,47,3,2077.67701148987,vision_sound
896,7,319,138,2,2327.09097862244,vision_sound
897,7,326,68,2,4357.85007476807,vision_sound
898,7,332,76,3,1857.69891738892,vision_sound
899,7,380,132,3,3603.55496406555,vision_sound
900,8,1,47,3,2661.02504730225,vision_sound
901,8,2,66,3,3252.12097167969,vision_sound
902,8,3,101,2,975.402116775513,vision_sound
903,8,4,114,3,1317.0759677887,vision_sound
904,8,5,129,2,1683.34913253784,vision_sound
905,8,6,81,1,3019.71507072449,vision_sound
906,8,7,50,3,2541.78810119629,vision_sound
907,8,8,60,1,3261.19995117188,vision_sound
908,8,9,49,3,3692.80600547791,vision_sound
909,8,10,71,1,2212.80908584595,vision_sound
910,8,11,116,2,3336.42601966858,vision_sound
911,8,12,145,1,3343.99104118347,vision_sound
912,8,13,92,1,2859.79890823364,vision_sound
913,8,14,46,3,2128.76296043396,vision_sound
914,8,15,97,1,781.206846237183,vision_sound
915,8,16,14,2,3093.64795684814,vision_sound
916,8,17,40,1,4036.90195083618,vision_sound
917,8,18,111,2,2003.57508659363,vision_sound
918,8,19,150,1,729.205131530762,vision_sound
919,8,20,105,1,1180.55701255798,vision_sound
920,8,21,23,2,1111.04798316956,vision_sound
921,8,22,70,3,3562.54577636719,vision_sound
922,8,23,19,2,3002.09212303162,vision_sound
923,8,24,53,3,1317.82221794128,vision_sound
924,8,25,64,2,3998.54207038879,vision_sound
925,8,26,34,3,788.408994674683,vision_sound
926,8,27,24,3,1190.82713127136,vision_sound
927,8,28,118,2,1204.73313331604,vision_sound
928,8,29,115,2,1892.54188537598,vision_sound
929,8,30,68,2,820.894002914429,vision_sound
930,8,31,48,3,2704.78987693787,vision_sound
931,8,32,110,3,3066.76292419434,vision_sound
932,8,33,95,2,704.457998275757,vision_sound
933,8,34,13,3,1950.93989372253,vision_sound
934,8,35,141,3,1923.12502861023,vision_sound
935,8,36,3,3,1789.02006149292,vision_sound
936,8,37,31,2,3891.60919189453,vision_sound
937,8,38,26,3,6992.60902404785,vision_sound
938,8,39,25,3,3449.06616210938,vision_sound
939,8,40,149,1,1644.09589767456,vision_sound
940,8,41,82,3,2249.94397163391,vision_sound
941,8,42,126,3,3053.32899093628,vision_sound
942,8,43,59,3,2656.56995773315,vision_sound
943,8,44,38,2,1932.32011795044,vision_sound
944,8,45,91,2,3615.78917503357,vision_sound
945,8,46,27,2,3476.23991966248,vision_sound
946,8,47,44,3,3349.29394721985,vision_sound
947,8,48,41,3,3556.66303634644,vision_sound
948,8,49,33,3,3257.20715522766,vision_sound
949,8,50,4,2,2385.61701774597,vision_sound
950,8,51,54,3,2637.21394538879,vision_sound
951,8,52,139,3,3565.56606292725,vision_sound
952,8,53,98,2,2403.39589118958,vision_sound
953,8,54,123,2,2143.91922950745,vision_sound
954,8,55,76,3,6147.74918556213,vision_sound
955,8,56,104,3,2853.03807258606,vision_sound
956,8,57,17,3,1004.13417816162,vision_sound
957,8,58,127,1,2544.34299468994,vision_sound
958,8,59,144,1,2462.02492713928,vision_sound
959,8,60,37,2,3550.02188682556,vision_sound
960,8,61,102,3,6165.91000556946,vision_sound
961,8,62,147,1,3026.34906768799,vision_sound
962,8,63,7,1,2824.78213310242,vision_sound
963,8,64,73,2,4340.06404876709,vision_sound
964,8,65,5,3,2329.32686805725,vision_sound
965,8,66,103,1,1302.95896530151,vision_sound
966,8,67,125,1,721.492052078247,vision_sound
967,8,68,72,2,1593.80292892456,vision_sound
968,8,69,94,2,902.747869491577,vision_sound
969,8,70,79,1,3517.69304275513,vision_sound
970,8,71,107,2,2760.75005531311,vision_sound
971,8,72,30,1,1508.02206993103,vision_sound
972,8,73,6,3,1585.25395393372,vision_sound
973,8,74,10,2,2597.86295890808,vision_sound
974,8,75,90,2,3367.67077445984,vision_sound
975,8,76,121,1,4724.22790527344,vision_sound
976,8,77,112,2,1764.97602462769,vision_sound
977,8,78,142,2,1081.85386657715,vision_sound
978,8,79,9,3,1385.16497612,vision_sound
979,8,80,140,3,2586.83514595032,vision_sound
980,8,81,61,3,3768.1679725647,vision_sound
981,8,82,88,2,4002.81500816345,vision_sound
982,8,84,52,1,2987.84613609314,vision_sound
983,8,85,80,2,2676.51987075806,vision_sound
984,8,86,132,3,4482.18107223511,vision_sound
985,8,90,148,3,1657.99713134766,vision_sound
986,8,91,28,2,4186.17415428162,vision_sound
987,8,93,93,2,1051.11980438232,vision_sound
988,8,94,39,2,2131.07299804688,vision_sound
989,8,97,146,3,1323.49586486816,vision_sound
990,8,98,65,3,2347.25594520569,vision_sound
991,8,99,134,1,3061.81383132935,vision_sound
992,8,100,137,1,2322.9022026062,vision_sound
993,8,102,58,1,3301.10096931458,vision_sound
994,8,103,15,2,3914.08801078796,vision_sound
995,8,106,56,2,2998.38304519653,vision_sound
996,8,107,2,1,2213.19794654846,vision_sound
997,8,109,78,3,5753.58200073242,vision_sound
998,8,111,67,1,806.928157806396,vision_sound
999,8,112,16,3,2097.22495079041,vision_sound
1000,8,113,109,2,1808.82692337036,vision_sound
1001,8,114,21,1,1866.4698600769,vision_sound
1002,8,115,89,3,3875.93102455139,vision_sound
1003,8,118,108,3,1866.33205413818,vision_sound
1004,8,121,32,1,1517.09222793579,vision_sound
1005,8,122,57,1,5732.3911190033,vision_sound
1006,8,123,1,1,332.430839538574,vision_sound
1007,8,126,55,3,1474.30300712585,vision_sound
1008,8,127,51,3,3277.51898765564,vision_sound
1009,8,129,69,1,4140.30385017395,vision_sound
1010,8,132,43,2,4497.43580818176,vision_sound
1011,8,133,62,2,3736.21988296509,vision_sound
1012,8,139,22,2,2524.7688293457,vision_sound
1013,8,140,74,2,1134.62495803833,vision_sound
1014,8,142,18,3,3035.1459980011,vision_sound
1015,8,143,11,1,2068.86005401611,vision_sound
1016,8,144,29,1,4108.77704620361,vision_sound
1017,8,145,42,2,4337.18585968018,vision_sound
1018,8,148,131,1,2063.72308731079,vision_sound
1019,8,149,87,2,2496.04296684265,vision_sound
1020,8,154,99,3,816.833019256592,vision_sound
1021,8,156,113,1,3763.82899284363,vision_sound
1022,8,158,96,3,2514.01901245117,vision_sound
1023,8,163,100,1,5700.00100135803,vision_sound
1024,8,166,130,2,3587.30101585388,vision_sound
1025,8,170,143,2,2135.53285598755,vision_sound
1026,8,173,135,2,2825.61683654785,vision_sound
1027,8,179,106,1,2254.21810150146,vision_sound
1028,8,183,120,3,1414.96896743774,vision_sound
1029,8,186,119,1,2817.31295585632,vision_sound
1030,8,190,63,3,2811.00511550903,vision_sound
1031,8,192,136,2,3686.57684326172,vision_sound
1032,8,196,138,3,3024.09887313843,vision_sound
1033,8,207,124,1,2747.9510307312,vision_sound
1034,8,210,45,1,4394.20294761658,vision_sound
1035,8,214,8,3,2941.49899482727,vision_sound
1036,8,215,86,2,6846.16994857788,vision_sound
1037,8,223,12,1,3438.26413154602,vision_sound
1038,8,254,77,1,2590.43884277344,vision_sound
1039,8,283,128,2,4508.96000862122,vision_sound
1040,8,289,122,1,2195.04594802856,vision_sound
1041,8,297,75,1,3987.14685440063,vision_sound
1042,8,302,133,1,2969.06614303589,vision_sound
1043,8,306,83,3,3547.55306243896,vision_sound
1044,8,307,84,1,4292.71912574768,vision_sound
1045,8,316,35,3,2889.00995254517,vision_sound
1046,8,319,85,1,3978.21998596191,vision_sound
1047,8,326,36,2,6774.6639251709,vision_sound
1048,8,332,20,2,4646.7809677124,vision_sound
1049,8,380,117,3,3730.74388504028,vision_sound
1050,9,1,30,1,1518.1028842926,vision_sound
1051,9,2,72,3,1981.7521572113,vision_sound
1052,9,3,91,2,729.093074798584,vision_sound
1053,9,4,104,3,692.981958389282,vision_sound
1054,9,5,68,2,8977.79202461243,vision_sound
1055,9,6,82,1,2763.66591453552,vision_sound
1056,9,7,134,2,1077.9869556427,vision_sound
1057,9,8,149,1,1133.68105888367,vision_sound
1058,9,9,48,1,3092.72718429565,vision_sound
1059,9,10,85,1,1552.90389060974,vision_sound
1060,9,11,50,3,4289.69693183899,vision_sound
1061,9,12,110,1,2454.77294921875,vision_sound
1062,9,13,29,1,1968.82319450378,vision_sound
1063,9,14,41,3,2071.22302055359,vision_sound
1064,9,15,47,1,928.417205810547,vision_sound
1065,9,16,95,3,2129.05406951904,vision_sound
1066,9,17,43,3,3399.38902854919,vision_sound
1067,9,18,90,2,1664.9489402771,vision_sound
1068,9,19,63,1,551.197052001953,vision_sound
1069,9,20,39,1,2981.01282119751,vision_sound
1070,9,21,121,2,798.055171966553,vision_sound
1071,9,22,54,3,4682.98816680908,vision_sound
1072,9,23,128,2,1021.76785469055,vision_sound
1073,9,24,135,3,984.722137451172,vision_sound
1074,9,25,45,2,14442.8200721741,vision_sound
1075,9,26,102,3,2869.50397491455,vision_sound
1076,9,27,36,3,1712.14199066162,vision_sound
1077,9,28,6,2,3661.01908683777,vision_sound
1078,9,29,28,1,3253.30281257629,vision_sound
1079,9,30,84,2,1793.90788078308,vision_sound
1080,9,31,100,1,1838.28186988831,vision_sound
1081,9,32,109,1,1745.7869052887,vision_sound
1082,9,33,99,2,828.123092651367,vision_sound
1083,9,34,20,1,3282.96113014221,vision_sound
1084,9,35,19,3,4518.07284355164,vision_sound
1085,9,36,136,3,2250.84209442139,vision_sound
1086,9,37,32,2,5195.25909423828,vision_sound
1087,9,38,17,3,4560.5161190033,vision_sound
1088,9,39,87,1,4927.00910568237,vision_sound
1089,9,40,148,1,1170.80116271973,vision_sound
1090,9,41,15,3,1923.05088043213,vision_sound
1091,9,42,105,3,12315.5031204224,vision_sound
1092,9,43,106,2,1935.88709831238,vision_sound
1093,9,44,125,2,1918.70784759521,vision_sound
1094,9,45,11,2,8702.61406898499,vision_sound
1095,9,46,35,2,4797.08099365234,vision_sound
1096,9,47,61,2,1443.08185577393,vision_sound
1097,9,48,113,2,1352.73814201355,vision_sound
1098,9,49,129,2,900.435924530029,vision_sound
1099,9,50,69,2,2134.70506668091,vision_sound
1100,9,51,130,1,2028.57303619385,vision_sound
1101,9,52,108,2,881.513833999634,vision_sound
1102,9,53,83,2,3142.44699478149,vision_sound
1103,9,54,107,2,6194.30017471313,vision_sound
1104,9,55,123,2,1914.51501846313,vision_sound
1105,9,56,144,2,1011.13820075989,vision_sound
1106,9,57,24,3,1306.8699836731,vision_sound
1107,9,58,31,1,2208.87994766235,vision_sound
1108,9,59,58,1,3390.80405235291,vision_sound
1109,9,60,34,2,6742.06209182739,vision_sound
1110,9,61,88,3,3367.63095855713,vision_sound
1111,9,62,78,2,1482.48696327209,vision_sound
1112,9,63,57,1,1676.08308792114,vision_sound
1113,9,64,114,3,2643.92399787903,vision_sound
1114,9,65,97,1,2642.0910358429,vision_sound
1115,9,66,101,1,4225.79002380371,vision_sound
1116,9,67,96,1,756.48307800293,vision_sound
1117,9,68,60,2,1284.63006019592,vision_sound
1118,9,69,64,2,707.592010498047,vision_sound
1119,9,70,56,1,2003.98993492126,vision_sound
1120,9,71,111,1,1764.94002342224,vision_sound
1121,9,72,52,1,3692.82221794128,vision_sound
1122,9,73,117,3,957.065105438232,vision_sound
1123,9,74,138,2,832.770109176636,vision_sound
1124,9,75,124,1,1571.02608680725,vision_sound
1125,9,76,40,1,9864.62998390198,vision_sound
1126,9,77,143,2,1004.06789779663,vision_sound
1127,9,78,23,1,1204.85210418701,vision_sound
1128,9,79,27,3,2663.5308265686,vision_sound
1129,9,80,79,1,2823.48322868347,vision_sound
1130,9,81,80,3,2564.06116485596,vision_sound
1131,9,82,67,2,2037.69397735596,vision_sound
1132,9,84,86,1,3190.88101387024,vision_sound
1133,9,85,16,2,5691.79511070251,vision_sound
1134,9,86,116,3,4010.78200340271,vision_sound
1135,9,90,59,3,1720.86811065674,vision_sound
1136,9,91,103,2,2138.5509967804,vision_sound
1137,9,93,2,2,525.789976119995,vision_sound
1138,9,94,22,2,1465.44909477234,vision_sound
1139,9,97,1,1,52.4320602416992,vision_sound
1140,9,98,92,3,1850.54898262024,vision_sound
1141,9,99,38,1,3976.76706314087,vision_sound
1142,9,100,10,3,6359.83800888062,vision_sound
1143,9,102,33,1,2795.39704322815,vision_sound
1144,9,103,73,1,3784.17277336121,vision_sound
1145,9,106,126,3,3128.50308418274,vision_sound
1146,9,107,140,1,853.303909301758,vision_sound
1147,9,109,133,2,2767.46606826782,vision_sound
1148,9,111,119,1,1397.16410636902,vision_sound
1149,9,112,21,2,2500.18191337585,vision_sound
1150,9,113,146,1,1392.59600639343,vision_sound
1151,9,114,93,1,679.754972457886,vision_sound
1152,9,115,75,2,3389.97507095337,vision_sound
1153,9,118,74,2,3443.88294219971,vision_sound
1154,9,121,7,1,2093.11103820801,vision_sound
1155,9,122,112,3,1681.07485771179,vision_sound
1156,9,123,115,2,1093.73903274536,vision_sound
1157,9,126,18,3,1649.80888366699,vision_sound
1158,9,127,12,1,3214.41912651062,vision_sound
1159,9,129,127,3,1656.34298324585,vision_sound
1160,9,132,5,1,7579.7278881073,vision_sound
1161,9,133,3,2,44.2280769348145,vision_sound
1162,9,139,71,2,1273.14496040344,vision_sound
1163,9,140,81,2,953.560829162598,vision_sound
1164,9,142,147,2,956.735849380493,vision_sound
1165,9,143,13,1,1499.50098991394,vision_sound
1166,9,144,9,1,4089.91193771362,vision_sound
1167,9,145,14,2,3933.10618400574,vision_sound
1168,9,148,122,1,2839.24794197083,vision_sound
1169,9,149,98,2,5635.96391677856,vision_sound
1170,9,154,62,3,2489.10808563232,vision_sound
1171,9,156,142,2,2311.14411354065,vision_sound
1172,9,158,46,3,1508.50105285645,vision_sound
1173,9,163,118,1,1937.46590614319,vision_sound
1174,9,166,70,3,2204.12182807922,vision_sound
1175,9,170,55,2,5448.75478744507,vision_sound
1176,9,173,37,3,2848.55318069458,vision_sound
1177,9,179,77,2,2336.74192428589,vision_sound
1178,9,183,66,3,912.770986557007,vision_sound
1179,9,186,44,1,1682.43408203125,vision_sound
1180,9,190,49,3,6126.69110298157,vision_sound
1181,9,192,4,2,6926.51009559631,vision_sound
1182,9,196,141,3,3934.3888759613,vision_sound
1183,9,207,94,1,2121.68502807617,vision_sound
1184,9,210,132,1,2006.90293312073,vision_sound
1185,9,214,145,1,1906.35108947754,vision_sound
1186,9,215,139,1,1306.81490898132,vision_sound
1187,9,223,65,1,2202.26001739502,vision_sound
1188,9,254,8,1,2194.04697418213,vision_sound
1189,9,283,76,1,1224.79200363159,vision_sound
1190,9,289,137,1,1074.69701766968,vision_sound
1191,9,297,25,1,4829.17308807373,vision_sound
1192,9,302,131,2,3779.92701530457,vision_sound
1193,9,306,120,3,3075.43182373047,vision_sound
1194,9,307,51,1,2237.08510398865,vision_sound
1195,9,316,53,3,1434.49401855469,vision_sound
1196,9,319,42,2,2611.46688461304,vision_sound
1197,9,326,150,1,1129.02116775513,vision_sound
1198,9,332,26,2,2874.11308288574,vision_sound
1199,9,380,89,3,10342.5629138947,vision_sound
1200,10,1,103,3,1828.8300037384,vision_sound
1201,10,2,7,3,2410.94708442688,vision_sound
1202,10,3,58,2,679.656028747559,vision_sound
1203,10,4,41,3,1131.74200057983,vision_sound
1204,10,5,87,2,1364.00198936462,vision_sound
1205,10,6,78,1,3151.15690231323,vision_sound
1206,10,7,70,3,1702.16798782349,vision_sound
1207,10,8,50,1,4036.64112091064,vision_sound
1208,10,9,92,1,1968.28007698059,vision_sound
1209,10,10,139,1,5831.28786087036,vision_sound
1210,10,11,38,3,3096.51803970337,vision_sound
1211,10,12,46,1,1762.55106925964,vision_sound
1212,10,13,29,1,4311.22207641602,vision_sound
1213,10,14,117,3,1522.23300933838,vision_sound
1214,10,15,90,1,804.418087005615,vision_sound
1215,10,16,125,2,1002.19297409058,vision_sound
1216,10,17,147,1,9037.44101524353,vision_sound
1217,10,18,115,2,1790.43102264404,vision_sound
1218,10,19,32,1,1199.67794418335,vision_sound
1219,10,20,118,1,2780.64703941345,vision_sound
1220,10,21,143,2,886.638879776001,vision_sound
1221,10,22,36,2,2622.07412719727,vision_sound
1222,10,23,82,3,1290.55309295654,vision_sound
1223,10,24,37,3,990.885019302368,vision_sound
1224,10,25,24,2,3622.36309051514,vision_sound
1225,10,26,88,3,689.723014831543,vision_sound
1226,10,27,145,3,669.584989547729,vision_sound
1227,10,28,93,2,1306.11777305603,vision_sound
1228,10,29,123,1,1429.55303192139,vision_sound
1229,10,30,97,2,658.066987991333,vision_sound
1230,10,31,141,1,2593.34897994995,vision_sound
1231,10,32,110,3,3313.35997581482,vision_sound
1232,10,33,111,2,589.416027069092,vision_sound
1233,10,34,16,1,2569.7910785675,vision_sound
1234,10,35,40,3,10830.6350708008,vision_sound
1235,10,36,96,3,3085.19196510315,vision_sound
1236,10,37,128,2,2679.98194694519,vision_sound
1237,10,38,83,3,2374.24898147583,vision_sound
1238,10,39,45,1,2075.64306259155,vision_sound
1239,10,40,102,1,1068.61591339111,vision_sound
1240,10,41,142,3,2324.1720199585,vision_sound
1241,10,42,107,3,1266.41893386841,vision_sound
1242,10,43,43,1,2941.22409820557,vision_sound
1243,10,44,44,3,2470.2570438385,vision_sound
1244,10,45,91,1,2460.14499664307,vision_sound
1245,10,46,89,2,1255.51199913025,vision_sound
1246,10,47,114,2,1169.83294487,vision_sound
1247,10,48,81,1,1591.46904945374,vision_sound
1248,10,49,23,3,2011.32893562317,vision_sound
1249,10,50,106,2,1512.90702819824,vision_sound
1250,10,51,11,1,6250.34308433533,vision_sound
1251,10,52,121,3,1671.13995552063,vision_sound
1252,10,53,79,2,1715.65198898315,vision_sound
1253,10,54,48,2,2657.25612640381,vision_sound
1254,10,55,39,3,2352.12087631226,vision_sound
1255,10,56,53,2,2766.61109924316,vision_sound
1256,10,57,95,3,1022.92418479919,vision_sound
1257,10,58,98,1,4597.02897071838,vision_sound
1258,10,59,113,1,1151.36218070984,vision_sound
1259,10,60,144,3,961.458921432495,vision_sound
1260,10,61,73,3,1374.7718334198,vision_sound
1261,10,62,130,3,4941.17212295532,vision_sound
1262,10,63,109,2,2744.34089660645,vision_sound
1263,10,64,54,2,3053.227186203,vision_sound
1264,10,65,33,1,1813.54689598083,vision_sound
1265,10,66,100,2,1428.29895019531,vision_sound
1266,10,67,138,1,772.944927215576,vision_sound
1267,10,68,63,2,1606.69803619385,vision_sound
1268,10,69,34,2,887.362003326416,vision_sound
1269,10,70,76,1,1383.68201255798,vision_sound
1270,10,71,31,2,3465.91401100159,vision_sound
1271,10,72,10,1,2174.62205886841,vision_sound
1272,10,73,127,3,669.981956481934,vision_sound
1273,10,74,69,3,1412.16015815735,vision_sound
1274,10,75,18,1,2604.31909561157,vision_sound
1275,10,76,101,1,1927.570104599,vision_sound
1276,10,77,150,2,2433.14385414124,vision_sound
1277,10,78,116,2,1973.19388389587,vision_sound
1278,10,79,2,3,1246.16289138794,vision_sound
1279,10,80,74,1,1788.6688709259,vision_sound
1280,10,81,85,3,1467.64421463013,vision_sound
1281,10,82,8,2,3785.62092781067,vision_sound
1282,10,84,148,1,3321.88701629639,vision_sound
1283,10,85,146,1,1613.95502090454,vision_sound
1284,10,86,15,3,2861.27686500549,vision_sound
1285,10,90,149,3,2662.69898414612,vision_sound
1286,10,91,13,2,2064.87798690796,vision_sound
1287,10,93,65,2,925.412178039551,vision_sound
1288,10,94,52,2,2462.87393569946,vision_sound
1289,10,97,12,1,9427.61993408203,vision_sound
1290,10,98,55,3,3584.27000045776,vision_sound
1291,10,99,67,3,2337.02301979065,vision_sound
1292,10,100,71,3,3110.59999465942,vision_sound
1293,10,102,49,1,3342.1049118042,vision_sound
1294,10,103,131,1,2318.18103790283,vision_sound
1295,10,106,61,3,1436.91897392273,vision_sound
1296,10,107,42,1,4608.35695266724,vision_sound
1297,10,109,30,3,3954.67209815979,vision_sound
1298,10,111,57,1,814.438104629517,vision_sound
1299,10,112,84,3,2912.86516189575,vision_sound
1300,10,113,14,2,4377.45499610901,vision_sound
1301,10,114,112,1,531.280994415283,vision_sound
1302,10,115,124,3,3051.28502845764,vision_sound
1303,10,118,4,3,4285.64286231995,vision_sound
1304,10,121,134,1,903.45311164856,vision_sound
1305,10,122,80,3,2304.35514450073,vision_sound
1306,10,123,64,1,1321.60806655884,vision_sound
1307,10,126,94,3,1097.54490852356,vision_sound
1308,10,127,6,3,2372.11513519287,vision_sound
1309,10,129,66,1,2260.60390472412,vision_sound
1310,10,132,108,1,2368.70121955872,vision_sound
1311,10,133,26,1,13702.0261287689,vision_sound
1312,10,139,5,2,1110.60500144958,vision_sound
1313,10,140,105,2,856.165885925293,vision_sound
1314,10,142,133,2,1716.60304069519,vision_sound
1315,10,143,47,1,1359.87186431885,vision_sound
1316,10,144,25,1,2099.28107261658,vision_sound
1317,10,145,22,2,2758.31389427185,vision_sound
1318,10,148,21,1,2320.2121257782,vision_sound
1319,10,149,35,2,1418.88093948364,vision_sound
1320,10,154,86,3,795.001983642578,vision_sound
1321,10,156,28,1,7983.5798740387,vision_sound
1322,10,158,27,3,3294.73495483398,vision_sound
1323,10,163,20,1,4905.08484840393,vision_sound
1324,10,166,129,3,1750.68998336792,vision_sound
1325,10,170,17,3,11279.314994812,vision_sound
1326,10,173,135,3,1268.92900466919,vision_sound
1327,10,179,120,1,1211.79795265198,vision_sound
1328,10,183,122,3,906.791925430298,vision_sound
1329,10,186,3,1,5312.63303756714,vision_sound
1330,10,190,75,3,1259.90700721741,vision_sound
1331,10,192,140,1,1310.88995933533,vision_sound
1332,10,196,62,3,2420.25113105774,vision_sound
1333,10,207,132,1,4955.02996444702,vision_sound
1334,10,210,99,1,1832.594871521,vision_sound
1335,10,214,68,1,4044.98696327209,vision_sound
1336,10,215,56,1,2379.93597984314,vision_sound
1337,10,223,104,1,1393.30101013184,vision_sound
1338,10,254,77,1,2881.85095787048,vision_sound
1339,10,283,60,1,1451.65109634399,vision_sound
1340,10,289,126,1,1028.56516838074,vision_sound
1341,10,297,1,1,6527.37998962402,vision_sound
1342,10,302,136,1,933.398008346558,vision_sound
1343,10,306,9,3,2314.82315063477,vision_sound
1344,10,307,51,1,1940.36293029785,vision_sound
1345,10,316,72,3,1778.27596664429,vision_sound
1346,10,319,59,1,1365.47183990479,vision_sound
1347,10,326,137,1,1704.73909378052,vision_sound
1348,10,332,19,1,3263.18502426147,vision_sound
1349,10,380,119,3,2044.63291168213,vision_sound
1350,11,1,97,1,1205.04808425903,vision_sound
1351,11,2,92,1,4998.02494049072,vision_sound
1352,11,3,89,2,1441.98799133301,vision_sound
1353,11,4,50,3,1745.80097198486,vision_sound
1354,11,5,134,2,1634.90605354309,vision_sound
1355,11,6,45,1,3950.38509368896,vision_sound
1356,11,7,33,2,1797.56784439087,vision_sound
1357,11,8,136,1,1744.93384361267,vision_sound
1358,11,9,81,1,4417.56391525269,vision_sound
1359,11,10,130,3,2792.44709014893,vision_sound
1360,11,11,34,3,3754.74905967712,vision_sound
1361,11,12,149,2,1463.29307556152,vision_sound
1362,11,13,60,1,1695.89614868164,vision_sound
1363,11,14,86,2,2556.75101280212,vision_sound
1364,11,15,117,1,3350.35109519958,vision_sound
1365,11,16,37,2,2887.24994659424,vision_sound
1366,11,17,54,3,2029.76608276367,vision_sound
1367,11,18,102,2,2069.83804702759,vision_sound
1368,11,19,84,1,1294.22807693481,vision_sound
1369,11,20,118,2,4943.53604316711,vision_sound
1370,11,21,94,2,1268.72396469116,vision_sound
1371,11,22,68,3,2033.30206871033,vision_sound
1372,11,23,124,2,1611.85598373413,vision_sound
1373,11,24,145,3,939.40806388855,vision_sound
1374,11,25,80,2,2735.48483848572,vision_sound
1375,11,26,111,3,1391.48902893066,vision_sound
1376,11,27,62,3,1543.26891899109,vision_sound
1377,11,28,106,2,1705.60884475708,vision_sound
1378,11,29,9,1,1510.20503044128,vision_sound
1379,11,30,47,2,1457.52811431885,vision_sound
1380,11,31,100,3,1621.11806869507,vision_sound
1381,11,32,55,3,1856.74381256104,vision_sound
1382,11,33,58,2,1958.31513404846,vision_sound
1383,11,34,105,3,2397.39680290222,vision_sound
1384,11,35,76,3,2725.28600692749,vision_sound
1385,11,36,20,3,1376.45196914673,vision_sound
1386,11,37,16,1,6061.72394752502,vision_sound
1387,11,38,11,1,4036.80801391602,vision_sound
1388,11,39,35,1,2273.01597595215,vision_sound
1389,11,40,28,1,7517.53997802734,vision_sound
1390,11,41,42,2,3582.24701881409,vision_sound
1391,11,42,99,1,1797.99318313599,vision_sound
1392,11,43,125,2,1481.50706291199,vision_sound
1393,11,44,46,2,1778.3579826355,vision_sound
1394,11,45,53,2,2127.16293334961,vision_sound
1395,11,46,150,2,1494.81010437012,vision_sound
1396,11,47,32,2,2708.15205574036,vision_sound
1397,11,48,74,1,1322.20602035522,vision_sound
1398,11,49,41,2,2504.075050354,vision_sound
1399,11,50,90,2,1507.5740814209,vision_sound
1400,11,51,126,3,2402.02379226685,vision_sound
1401,11,52,103,3,3095.50380706787,vision_sound
1402,11,53,67,2,1810.13011932373,vision_sound
1403,11,54,77,2,4975.61407089233,vision_sound
1404,11,55,123,2,4266.65902137756,vision_sound
1405,11,56,4,3,1946.05994224548,vision_sound
1406,11,57,82,3,2378.13901901245,vision_sound
1407,11,58,15,1,1948.52900505066,vision_sound
1408,11,59,104,2,1614.14504051208,vision_sound
1409,11,60,133,2,3921.1220741272,vision_sound
1410,11,61,88,1,3504.93288040161,vision_sound
1411,11,62,19,3,5073.28581809998,vision_sound
1412,11,63,127,1,3420.1078414917,vision_sound
1413,11,64,2,3,1453.86004447937,vision_sound
1414,11,65,112,1,5084.88798141479,vision_sound
1415,11,66,48,2,3210.47616004944,vision_sound
1416,11,67,107,1,2202.29697227478,vision_sound
1417,11,68,12,2,1791.84579849243,vision_sound
1418,11,69,132,2,2439.46290016174,vision_sound
1419,11,70,131,2,5743.61610412598,vision_sound
1420,11,71,26,2,1669.32010650635,vision_sound
1421,11,72,144,1,3074.39494132996,vision_sound
1422,11,73,140,3,1073.31705093384,vision_sound
1423,11,74,66,2,1419.98410224915,vision_sound
1424,11,75,115,1,1756.8519115448,vision_sound
1425,11,76,49,1,2700.72603225708,vision_sound
1426,11,77,22,2,2524.22285079956,vision_sound
1427,11,78,56,2,1356.07695579529,vision_sound
1428,11,79,24,3,1956.32910728455,vision_sound
1429,11,80,18,2,4534.04498100281,vision_sound
1430,11,81,21,3,2378.3860206604,vision_sound
1431,11,82,75,2,5614.19200897217,vision_sound
1432,11,84,14,1,3919.22783851624,vision_sound
1433,11,85,10,2,1309.99517440796,vision_sound
1434,11,86,122,2,4663.18988800049,vision_sound
1435,11,90,6,1,1905.0281047821,vision_sound
1436,11,91,139,2,2403.08904647827,vision_sound
1437,11,93,17,2,2812.69788742065,vision_sound
1438,11,94,143,2,2085.23988723755,vision_sound
1439,11,97,23,3,2733.26301574707,vision_sound
1440,11,98,113,3,3888.46898078918,vision_sound
1441,11,99,31,3,1813.48013877869,vision_sound
1442,11,100,128,1,3507.08913803101,vision_sound
1443,11,102,138,2,1377.77495384216,vision_sound
1444,11,103,148,2,3057.26385116577,vision_sound
1445,11,106,79,2,1370.75209617615,vision_sound
1446,11,107,65,1,3008.24904441833,vision_sound
1447,11,109,13,2,1378.96299362183,vision_sound
1448,11,111,135,1,938.383817672729,vision_sound
1449,11,112,57,3,207.625150680542,vision_sound
1450,11,113,40,1,4555.09901046753,vision_sound
1451,11,114,114,1,1370.74613571167,vision_sound
1452,11,115,72,3,2487.20407485962,vision_sound
1453,11,118,109,2,1823.79698753357,vision_sound
1454,11,121,69,2,2373.62194061279,vision_sound
1455,11,122,59,1,4745.3989982605,vision_sound
1456,11,123,129,2,1286.27705574036,vision_sound
1457,11,126,44,2,2097.21899032593,vision_sound
1458,11,127,5,3,1546.68498039246,vision_sound
1459,11,129,108,1,1295.10402679443,vision_sound
1460,11,132,116,2,7757.10320472717,vision_sound
1461,11,133,110,2,6029.93988990784,vision_sound
1462,11,139,120,2,2697.40390777588,vision_sound
1463,11,140,38,2,1910.93111038208,vision_sound
1464,11,142,93,3,2859.84086990356,vision_sound
1465,11,143,30,1,1829.18190956116,vision_sound
1466,11,144,63,1,2728.81007194519,vision_sound
1467,11,145,71,2,2011.84105873108,vision_sound
1468,11,148,142,1,1974.23696517944,vision_sound
1469,11,149,27,2,1678.88593673706,vision_sound
1470,11,154,1,3,3504.23693656921,vision_sound
1471,11,156,43,3,3007.89403915405,vision_sound
1472,11,158,73,3,1419.44885253906,vision_sound
1473,11,163,70,2,1913.04612159729,vision_sound
1474,11,166,8,2,2394.22988891602,vision_sound
1475,11,170,87,2,1409.14297103882,vision_sound
1476,11,173,119,2,2208.33206176758,vision_sound
1477,11,179,25,1,4202.0959854126,vision_sound
1478,11,183,83,3,1221.32611274719,vision_sound
1479,11,186,137,1,1915.69709777832,vision_sound
1480,11,190,7,1,6446.07496261597,vision_sound
1481,11,192,29,2,3303.71904373169,vision_sound
1482,11,196,95,2,1504.82201576233,vision_sound
1483,11,207,51,2,7342.13781356812,vision_sound
1484,11,210,147,2,2965.13080596924,vision_sound
1485,11,214,64,3,2290.22908210754,vision_sound
1486,11,215,91,1,2147.34411239624,vision_sound
1487,11,223,146,1,1702.82196998596,vision_sound
1488,11,254,3,1,1426.72514915466,vision_sound
1489,11,283,121,2,3080.21092414856,vision_sound
1490,11,289,52,1,2668.6851978302,vision_sound
1491,11,297,85,1,3328.15384864807,vision_sound
1492,11,302,61,2,4603.17802429199,vision_sound
1493,11,306,101,1,1816.98083877563,vision_sound
1494,11,307,78,1,2896.26407623291,vision_sound
1495,11,316,98,3,1644.05202865601,vision_sound
1496,11,319,96,2,1613.45815658569,vision_sound
1497,11,326,141,2,4731.62198066711,vision_sound
1498,11,332,36,2,1845.65997123718,vision_sound
1499,11,380,39,1,4279.05511856079,vision_sound
1500,12,1,65,1,1336.11011505127,vision_sound
1501,12,2,40,3,4401.5588760376,vision_sound
1502,12,3,69,2,982.957124710083,vision_sound
1503,12,4,147,3,923.341035842896,vision_sound
1504,12,5,38,2,2100.46911239624,vision_sound
1505,12,6,85,1,1594.54202651978,vision_sound
1506,12,7,41,2,1497.75719642639,vision_sound
1507,12,8,57,1,975.037097930908,vision_sound
1508,12,9,115,1,970.832824707031,vision_sound
1509,12,10,54,1,1526.84807777405,vision_sound
1510,12,11,135,3,1365.49186706543,vision_sound
1511,12,12,137,1,1965.73209762573,vision_sound
1512,12,13,99,1,1432.34705924988,vision_sound
1513,12,14,46,3,3305.00388145447,vision_sound
1514,12,15,96,1,617.048025131226,vision_sound
1515,12,16,31,1,1537.76407241821,vision_sound
1516,12,17,117,1,3777.71091461182,vision_sound
1517,12,18,44,2,1202.92782783508,vision_sound
1518,12,19,23,1,808.738946914673,vision_sound
1519,12,20,8,1,2493.17789077759,vision_sound
1520,12,21,140,2,746.910810470581,vision_sound
1521,12,22,129,3,1928.307056427,vision_sound
1522,12,23,53,2,1237.13707923889,vision_sound
1523,12,24,81,3,1580.50513267517,vision_sound
1524,12,25,143,1,1136.97791099548,vision_sound
1525,12,26,59,3,1081.79497718811,vision_sound
1526,12,27,82,3,1152.39310264587,vision_sound
1527,12,28,26,2,2421.34690284729,vision_sound
1528,12,29,105,1,2772.69315719604,vision_sound
1529,12,30,55,2,748.711824417114,vision_sound
1530,12,31,127,1,2993.47615242004,vision_sound
1531,12,32,110,1,1218.78814697266,vision_sound
1532,12,33,112,2,736.154079437256,vision_sound
1533,12,34,39,3,4007.28988647461,vision_sound
1534,12,35,49,1,1487.19000816345,vision_sound
1535,12,36,108,3,2699.10001754761,vision_sound
1536,12,37,102,2,2421.59104347229,vision_sound
1537,12,38,88,3,1377.2509098053,vision_sound
1538,12,39,35,1,1043.67995262146,vision_sound
1539,12,40,30,1,1384.09781455994,vision_sound
1540,12,41,92,3,1257.79294967651,vision_sound
1541,12,42,45,3,1942.49701499939,vision_sound
1542,12,43,91,2,1524.69301223755,vision_sound
1543,12,44,101,1,1654.11400794983,vision_sound
1544,12,45,36,2,2538.26808929443,vision_sound
1545,12,46,75,2,1562.50715255737,vision_sound
1546,12,47,12,2,1819.57697868347,vision_sound
1547,12,48,80,3,3449.38111305237,vision_sound
1548,12,49,42,2,2027.73404121399,vision_sound
1549,12,50,109,2,2678.6470413208,vision_sound
1550,12,51,132,1,1784.71398353577,vision_sound
1551,12,52,16,3,2108.47091674805,vision_sound
1552,12,53,123,2,2733.62588882446,vision_sound
1553,12,54,37,2,2564.20993804932,vision_sound
1554,12,55,149,3,1742.88988113403,vision_sound
1555,12,56,125,3,2189.01896476746,vision_sound
1556,12,57,50,3,1043.52688789368,vision_sound
1557,12,58,119,3,1676.47004127502,vision_sound
1558,12,59,148,1,1585.2530002594,vision_sound
1559,12,60,29,2,3422.53398895264,vision_sound
1560,12,61,68,3,8173.24495315552,vision_sound
1561,12,62,133,1,2005.79500198364,vision_sound
1562,12,63,51,1,1585.73222160339,vision_sound
1563,12,64,76,2,1610.12506484985,vision_sound
1564,12,65,34,3,6200.04200935364,vision_sound
1565,12,66,25,1,2183.61687660217,vision_sound
1566,12,67,71,1,660.048007965088,vision_sound
1567,12,68,1,3,21459.3939781189,vision_sound
1568,12,69,20,2,885.46085357666,vision_sound
1569,12,70,32,2,1542.79708862305,vision_sound
1570,12,71,116,2,2033.5431098938,vision_sound
1571,12,72,61,1,1361.64689064026,vision_sound
1572,12,73,84,3,797.266960144043,vision_sound
1573,12,74,24,2,2180.16505241394,vision_sound
1574,12,75,98,1,2477.52904891968,vision_sound
1575,12,76,66,1,5297.27005958557,vision_sound
1576,12,77,2,3,2365.6919002533,vision_sound
1577,12,78,122,2,1007.23505020142,vision_sound
1578,12,79,97,3,824.485778808594,vision_sound
1579,12,80,28,3,2038.21992874146,vision_sound
1580,12,81,128,3,1240.64493179321,vision_sound
1581,12,82,77,3,4293.29299926758,vision_sound
1582,12,84,5,2,1464.64920043945,vision_sound
1583,12,85,70,2,2145.34187316895,vision_sound
1584,12,86,144,1,1752.48003005981,vision_sound
1585,12,90,73,3,1619.55189704895,vision_sound
1586,12,91,47,2,1744.41885948181,vision_sound
1587,12,93,87,2,699.190855026245,vision_sound
1588,12,94,21,2,1893.82100105286,vision_sound
1589,12,97,134,3,1953.75108718872,vision_sound
1590,12,98,64,3,1731.86206817627,vision_sound
1591,12,99,150,3,1452.29005813599,vision_sound
1592,12,100,4,2,1567.37899780273,vision_sound
1593,12,102,72,1,2894.39105987549,vision_sound
1594,12,103,113,1,2988.4991645813,vision_sound
1595,12,106,141,3,2299.74985122681,vision_sound
1596,12,107,146,2,1764.79911804199,vision_sound
1597,12,109,43,2,1980.79204559326,vision_sound
1598,12,111,104,1,641.383171081543,vision_sound
1599,12,112,100,3,1865.31901359558,vision_sound
1600,12,113,11,2,4040.38691520691,vision_sound
1601,12,114,138,1,646.443128585815,vision_sound
1602,12,115,145,3,1484.69710350037,vision_sound
1603,12,118,19,2,3036.55004501343,vision_sound
1604,12,121,95,1,1139.89782333374,vision_sound
1605,12,122,79,3,3596.75407409668,vision_sound
1606,12,123,114,1,1029.01816368103,vision_sound
1607,12,126,3,3,1696.22611999512,vision_sound
1608,12,127,58,1,2257.86304473877,vision_sound
1609,12,129,62,1,2588.18793296814,vision_sound
1610,12,132,63,2,5246.07610702515,vision_sound
1611,12,133,118,1,2165.78483581543,vision_sound
1612,12,139,48,2,990.137100219727,vision_sound
1613,12,140,124,2,1300.35996437073,vision_sound
1614,12,142,94,3,2969.99216079712,vision_sound
1615,12,143,93,1,1445.06287574768,vision_sound
1616,12,144,90,1,1449.56207275391,vision_sound
1617,12,145,89,3,1935.13917922974,vision_sound
1618,12,148,14,1,2655.68780899048,vision_sound
1619,12,149,111,2,952.975988388062,vision_sound
1620,12,154,107,3,903.473138809204,vision_sound
1621,12,156,17,3,2119.52185630798,vision_sound
1622,12,158,7,3,3426.15604400635,vision_sound
1623,12,163,121,1,1591.31383895874,vision_sound
1624,12,166,120,3,1861.58394813538,vision_sound
1625,12,170,106,2,1273.98896217346,vision_sound
1626,12,173,15,2,5378.34405899048,vision_sound
1627,12,179,130,1,1614.62712287903,vision_sound
1628,12,183,18,3,1567.36302375793,vision_sound
1629,12,186,56,1,1410.97593307495,vision_sound
1630,12,190,13,3,2676.40995979309,vision_sound
1631,12,192,6,1,1186.22088432312,vision_sound
1632,12,196,67,3,5071.81286811829,vision_sound
1633,12,207,74,1,1182.78288841248,vision_sound
1634,12,210,83,1,1191.97797775269,vision_sound
1635,12,214,27,2,5635.76698303223,vision_sound
1636,12,215,136,1,958.561182022095,vision_sound
1637,12,223,131,1,954.586982727051,vision_sound
1638,12,254,10,1,1990.69499969482,vision_sound
1639,12,283,139,1,1385.17189025879,vision_sound
1640,12,289,78,1,2040.40598869324,vision_sound
1641,12,297,9,2,3900.51412582397,vision_sound
1642,12,302,60,2,3273.4169960022,vision_sound
1643,12,306,103,3,3396.02017402649,vision_sound
1644,12,307,126,1,1041.49889945984,vision_sound
1645,12,316,86,3,1383.82792472839,vision_sound
1646,12,319,33,1,2931.3600063324,vision_sound
1647,12,326,52,2,2946.13790512085,vision_sound
1648,12,332,142,1,1108.20889472961,vision_sound
1649,12,380,22,3,2983.08086395264,vision_sound
1650,13,1,133,1,3374.72486495972,vision_sound
1651,13,2,4,1,4658.09893608093,vision_sound
1652,13,3,44,2,771.808862686157,vision_sound
1653,13,4,59,3,874.482154846191,vision_sound
1654,13,5,143,2,3863.94619941711,vision_sound
1655,13,6,21,1,4958.77909660339,vision_sound
1656,13,7,53,3,2774.77788925171,vision_sound
1657,13,8,124,1,3402.79197692871,vision_sound
1658,13,9,127,1,4597.06497192383,vision_sound
1659,13,10,47,1,5085.33096313477,vision_sound
1660,13,11,122,3,3974.75600242615,vision_sound
1661,13,12,2,3,5575.3870010376,vision_sound
1662,13,13,63,1,5572.95298576355,vision_sound
1663,13,14,109,3,3581.92992210388,vision_sound
1664,13,15,5,1,3090.87109565735,vision_sound
1665,13,16,120,2,3090.83604812622,vision_sound
1666,13,17,147,1,2815.43588638306,vision_sound
1667,13,18,35,2,3316.34593009949,vision_sound
1668,13,19,136,1,718.761205673218,vision_sound
1669,13,20,73,1,4751.7831325531,vision_sound
1670,13,21,34,2,1324.88512992859,vision_sound
1671,13,22,3,3,2641.58606529236,vision_sound
1672,13,23,49,2,5200.31905174255,vision_sound
1673,13,24,8,3,1428.80988121033,vision_sound
1674,13,25,80,2,2606.12487792969,vision_sound
1675,13,26,39,3,2638.14902305603,vision_sound
1676,13,27,15,3,993.266105651855,vision_sound
1677,13,28,103,1,2114.16506767273,vision_sound
1678,13,29,38,1,1906.69298171997,vision_sound
1679,13,30,95,2,1442.16394424438,vision_sound
1680,13,31,72,1,3646.6760635376,vision_sound
1681,13,32,115,1,2938.51804733276,vision_sound
1682,13,33,31,2,1545.0119972229,vision_sound
1683,13,34,111,1,3113.93213272095,vision_sound
1684,13,35,82,3,7117.91801452637,vision_sound
1685,13,36,110,3,2143.79000663757,vision_sound
1686,13,37,26,2,5610.89992523193,vision_sound
1687,13,38,81,3,4647.49813079834,vision_sound
1688,13,39,145,1,3883.64291191101,vision_sound
1689,13,40,121,1,4892.60983467102,vision_sound
1690,13,41,20,3,4831.75182342529,vision_sound
1691,13,42,41,3,5678.90906333923,vision_sound
1692,13,43,132,1,3080.66010475159,vision_sound
1693,13,44,13,2,5654.07609939575,vision_sound
1694,13,45,126,1,2282.58919715881,vision_sound
1695,13,46,18,2,6308.23087692261,vision_sound
1696,13,47,54,3,4575.93393325806,vision_sound
1697,13,48,135,3,5830.96098899841,vision_sound
1698,13,49,16,3,4665.07005691528,vision_sound
1699,13,50,97,2,1723.82211685181,vision_sound
1700,13,51,25,1,6163.08403015137,vision_sound
1701,13,52,17,3,6523.31900596619,vision_sound
1702,13,53,11,2,4255.49697875977,vision_sound
1703,13,54,98,2,3705.98220825195,vision_sound
1704,13,55,67,3,2351.8660068512,vision_sound
1705,13,56,79,2,3099.27701950073,vision_sound
1706,13,57,22,3,789.599895477295,vision_sound
1707,13,58,42,3,3577.30197906494,vision_sound
1708,13,59,128,3,5401.09300613403,vision_sound
1709,13,60,108,3,2208.94908905029,vision_sound
1710,13,61,148,3,3863.73782157898,vision_sound
1711,13,62,51,3,5259.82618331909,vision_sound
1712,13,63,141,2,6627.18105316162,vision_sound
1713,13,64,66,2,3355.36003112793,vision_sound
1714,13,65,32,1,2609.57384109497,vision_sound
1715,13,66,100,2,2140.7949924469,vision_sound
1716,13,67,28,1,1856.27388954163,vision_sound
1717,13,68,104,2,3267.19307899475,vision_sound
1718,13,69,107,2,621.8421459198,vision_sound
1719,13,70,83,1,1884.31811332703,vision_sound
1720,13,71,149,2,2827.79002189636,vision_sound
1721,13,72,139,1,3629.89497184753,vision_sound
1722,13,73,114,3,797.644853591919,vision_sound
1723,13,74,101,3,2642.80605316162,vision_sound
1724,13,75,129,1,2569.73505020142,vision_sound
1725,13,76,119,1,9689.61000442505,vision_sound
1726,13,77,90,2,4200.57988166809,vision_sound
1727,13,78,105,2,2774.23310279846,vision_sound
1728,13,79,19,3,727.258920669556,vision_sound
1729,13,80,125,1,2233.93702507019,vision_sound
1730,13,81,123,3,3366.6558265686,vision_sound
1731,13,82,7,3,6008.8369846344,vision_sound
1732,13,84,12,1,5080.60312271118,vision_sound
1733,13,85,68,1,1748.29006195068,vision_sound
1734,13,86,86,3,4133.69607925415,vision_sound
1735,13,90,150,3,2952.68297195435,vision_sound
1736,13,91,1,2,4273.91505241394,vision_sound
1737,13,93,10,2,2330.88707923889,vision_sound
1738,13,94,45,2,4375.44894218445,vision_sound
1739,13,97,46,3,3135.98299026489,vision_sound
1740,13,98,117,3,2054.05497550964,vision_sound
1741,13,99,102,1,5269.37890052795,vision_sound
1742,13,100,78,3,2324.63502883911,vision_sound
1743,13,102,55,1,3979.10404205322,vision_sound
1744,13,103,29,1,5657.71698951721,vision_sound
1745,13,106,75,2,6458.163022995,vision_sound
1746,13,107,70,1,2145.7679271698,vision_sound
1747,13,109,85,3,4368.16096305847,vision_sound
1748,13,111,76,1,543.519020080566,vision_sound
1749,13,112,91,2,4595.91197967529,vision_sound
1750,13,113,62,2,4902.86803245544,vision_sound
1751,13,114,43,1,1878.72290611267,vision_sound
1752,13,115,48,3,8658.89596939087,vision_sound
1753,13,118,50,3,5625.63705444336,vision_sound
1754,13,121,40,1,2827.12292671204,vision_sound
1755,13,122,61,3,3224.3549823761,vision_sound
1756,13,123,9,1,4902.04191207886,vision_sound
1757,13,126,71,3,3852.63586044312,vision_sound
1758,13,127,130,3,6670.27711868286,vision_sound
1759,13,129,106,1,4722.21493721008,vision_sound
1760,13,132,96,1,4891.75891876221,vision_sound
1761,13,133,58,1,5251.88302993774,vision_sound
1762,13,139,146,2,4119.32301521301,vision_sound
1763,13,140,37,2,2495.74303627014,vision_sound
1764,13,142,116,2,3045.72582244873,vision_sound
1765,13,143,36,1,2390.00582695007,vision_sound
1766,13,144,84,1,3127.40087509155,vision_sound
1767,13,145,27,3,7262.91298866272,vision_sound
1768,13,148,24,1,4106.1098575592,vision_sound
1769,13,149,57,2,2534.93809700012,vision_sound
1770,13,154,134,3,2658.79011154175,vision_sound
1771,13,156,93,1,2758.1148147583,vision_sound
1772,13,158,113,3,3834.33794975281,vision_sound
1773,13,163,64,1,2572.57509231567,vision_sound
1774,13,166,89,3,2189.28694725037,vision_sound
1775,13,170,33,3,2545.27902603149,vision_sound
1776,13,173,144,3,6501.74593925476,vision_sound
1777,13,179,23,1,6103.14917564392,vision_sound
1778,13,183,112,3,1061.3100528717,vision_sound
1779,13,186,140,1,3054.59403991699,vision_sound
1780,13,190,87,3,5252.77996063232,vision_sound
1781,13,192,30,1,6522.18198776245,vision_sound
1782,13,196,56,3,4267.72308349609,vision_sound
1783,13,207,142,1,2245.79191207886,vision_sound
1784,13,210,77,1,4620.22709846497,vision_sound
1785,13,214,88,2,4370.74279785156,vision_sound
1786,13,215,52,1,3345.38388252258,vision_sound
1787,13,223,60,1,5464.43390846252,vision_sound
1788,13,254,131,1,2783.06198120117,vision_sound
1789,13,283,6,1,5647.47905731201,vision_sound
1790,13,289,74,1,2312.67404556274,vision_sound
1791,13,297,118,1,4456.53700828552,vision_sound
1792,13,302,99,1,5794.36111450195,vision_sound
1793,13,306,14,3,4949.22304153442,vision_sound
1794,13,307,138,1,3637.55798339844,vision_sound
1795,13,316,92,3,3302.55889892578,vision_sound
1796,13,319,69,1,4907.16814994812,vision_sound
1797,13,326,94,1,6216.27402305603,vision_sound
1798,13,332,137,2,3843.19996833801,vision_sound
1799,13,380,65,3,3777.2388458252,vision_sound
1800,14,1,91,1,4867.46501922607,vision_sound
1801,14,2,62,3,2284.3930721283,vision_sound
1802,14,3,42,2,825.639009475708,vision_sound
1803,14,4,57,2,730.478048324585,vision_sound
1804,14,5,101,2,798.89988899231,vision_sound
1805,14,6,74,2,4955.21903038025,vision_sound
1806,14,7,111,2,3139.11318778992,vision_sound
1807,14,8,86,1,3497.55907058716,vision_sound
1808,14,9,98,3,2206.01201057434,vision_sound
1809,14,10,95,1,2204.26297187805,vision_sound
1810,14,11,5,2,5547.84393310547,vision_sound
1811,14,12,27,1,7919.59095001221,vision_sound
1812,14,13,89,1,5807.79194831848,vision_sound
1813,14,14,32,3,4642.01807975769,vision_sound
1814,14,15,122,1,617.063045501709,vision_sound
1815,14,16,17,2,2510.14304161072,vision_sound
1816,14,17,75,3,2538.72013092041,vision_sound
1817,14,18,52,2,2348.31404685974,vision_sound
1818,14,19,112,1,701.839208602905,vision_sound
1819,14,20,133,3,2049.99709129333,vision_sound
1820,14,21,26,2,738.533020019531,vision_sound
1821,14,22,116,3,6353.77192497253,vision_sound
1822,14,23,149,3,4722.45287895203,vision_sound
1823,14,24,144,3,941.602945327759,vision_sound
1824,14,25,82,2,4977.44107246399,vision_sound
1825,14,26,11,3,964.361906051636,vision_sound
1826,14,27,68,3,848.827123641968,vision_sound
1827,14,28,21,3,4828.03320884705,vision_sound
1828,14,29,2,2,5024.06907081604,vision_sound
1829,14,30,20,2,1104.31313514709,vision_sound
1830,14,31,129,1,2997.99799919128,vision_sound
1831,14,32,96,1,1192.71278381348,vision_sound
1832,14,33,6,2,1136.74712181091,vision_sound
1833,14,34,71,3,3017.22097396851,vision_sound
1834,14,35,100,3,1828.75895500183,vision_sound
1835,14,36,92,3,4546.93102836609,vision_sound
1836,14,37,72,2,6922.44100570679,vision_sound
1837,14,38,56,3,9592.3330783844,vision_sound
1838,14,39,134,1,3834.51294898987,vision_sound
1839,14,40,90,1,4772.11809158325,vision_sound
1840,14,41,41,3,3761.89398765564,vision_sound
1841,14,42,109,3,3061.06400489807,vision_sound
1842,14,43,118,2,5249.07493591309,vision_sound
1843,14,44,146,3,4153.74398231506,vision_sound
1844,14,45,84,2,3727.83493995667,vision_sound
1845,14,46,102,2,1701.55787467957,vision_sound
1846,14,47,105,2,1229.34794425964,vision_sound
1847,14,48,119,1,3122.04694747925,vision_sound
1848,14,49,93,2,3335.33096313477,vision_sound
1849,14,50,108,3,3539.40296173096,vision_sound
1850,14,51,53,3,3119.67802047729,vision_sound
1851,14,52,30,3,6560.59002876282,vision_sound
1852,14,53,24,2,3421.95892333984,vision_sound
1853,14,54,150,2,5714.09106254578,vision_sound
1854,14,55,126,3,2959.5959186554,vision_sound
1855,14,56,135,3,5343.42002868652,vision_sound
1856,14,57,131,3,897.417068481445,vision_sound
1857,14,58,140,1,4062.0129108429,vision_sound
1858,14,59,40,2,3817.06309318542,vision_sound
1859,14,60,141,3,5518.61596107483,vision_sound
1860,14,61,63,3,3431.56409263611,vision_sound
1861,14,62,83,3,4021.93212509155,vision_sound
1862,14,63,117,2,1820.98507881165,vision_sound
1863,14,64,130,3,1776.3819694519,vision_sound
1864,14,65,115,1,4281.86297416687,vision_sound
1865,14,66,9,3,7371.86288833618,vision_sound
1866,14,67,55,1,656.412839889526,vision_sound
1867,14,68,59,2,3361.7570400238,vision_sound
1868,14,69,49,2,690.590858459473,vision_sound
1869,14,70,114,1,7053.4520149231,vision_sound
1870,14,71,28,2,3003.20386886597,vision_sound
1871,14,72,61,1,2876.4500617981,vision_sound
1872,14,73,3,3,2417.04416275024,vision_sound
1873,14,74,104,2,1068.29905509949,vision_sound
1874,14,75,70,1,5236.32311820984,vision_sound
1875,14,76,87,1,2067.81911849976,vision_sound
1876,14,77,123,2,5236.44614219666,vision_sound
1877,14,78,136,2,2030.91812133789,vision_sound
1878,14,79,148,3,964.010000228882,vision_sound
1879,14,80,4,1,2969.20585632324,vision_sound
1880,14,81,10,3,3533.54001045227,vision_sound
1881,14,82,64,3,5759.59014892578,vision_sound
1882,14,84,127,1,3926.66101455688,vision_sound
1883,14,85,45,2,2376.63197517395,vision_sound
1884,14,86,113,3,7988.765001297,vision_sound
1885,14,90,128,1,3806.38408660889,vision_sound
1886,14,91,103,2,7315.58609008789,vision_sound
1887,14,93,99,2,671.105861663818,vision_sound
1888,14,94,80,2,5663.90204429626,vision_sound
1889,14,97,65,3,3786.60488128662,vision_sound
1890,14,98,29,3,5584.28692817688,vision_sound
1891,14,99,19,1,4665.08483886719,vision_sound
1892,14,100,132,1,1616.03188514709,vision_sound
1893,14,102,46,1,5673.99501800537,vision_sound
1894,14,103,16,2,5505.78784942627,vision_sound
1895,14,106,25,3,6779.865026474,vision_sound
1896,14,107,79,2,7417.92392730713,vision_sound
1897,14,109,110,2,5112.79201507568,vision_sound
1898,14,111,76,1,1312.91508674622,vision_sound
1899,14,112,147,3,4945.39713859558,vision_sound
1900,14,113,145,2,4286.69285774231,vision_sound
1901,14,114,47,1,972.421169281006,vision_sound
1902,14,115,36,3,3606.91118240356,vision_sound
1903,14,118,124,3,4822.34907150269,vision_sound
1904,14,121,85,2,3518.05305480957,vision_sound
1905,14,122,142,3,7176.96905136108,vision_sound
1906,14,123,12,1,3902.2741317749,vision_sound
1907,14,126,22,3,4643.07904243469,vision_sound
1908,14,127,37,3,3784.13200378418,vision_sound
1909,14,129,33,1,6639.62888717651,vision_sound
1910,14,132,94,1,4056.38408660889,vision_sound
1911,14,133,39,1,4512.45403289795,vision_sound
1912,14,139,44,2,2637.45903968811,vision_sound
1913,14,140,7,2,3167.72985458374,vision_sound
1914,14,142,66,2,4331.30097389221,vision_sound
1915,14,143,106,2,949.424028396606,vision_sound
1916,14,144,125,1,4195.97291946411,vision_sound
1917,14,145,51,3,8392.62104034424,vision_sound
1918,14,148,8,1,5800.00901222229,vision_sound
1919,14,149,31,2,4611.00697517395,vision_sound
1920,14,154,13,3,911.147117614746,vision_sound
1921,14,156,43,1,5279.3390750885,vision_sound
1922,14,158,18,3,3385.46395301819,vision_sound
1923,14,163,88,1,6125.05197525024,vision_sound
1924,14,166,38,3,7881.57200813293,vision_sound
1925,14,170,139,2,3141.87598228455,vision_sound
1926,14,173,54,2,4724.00093078613,vision_sound
1927,14,179,143,1,4494.75693702698,vision_sound
1928,14,183,1,3,2628.45897674561,vision_sound
1929,14,186,58,1,5652.11892127991,vision_sound
1930,14,190,107,3,2207.71908760071,vision_sound
1931,14,192,121,2,2066.9469833374,vision_sound
1932,14,196,50,3,7202.9070854187,vision_sound
1933,14,207,67,2,7967.47994422913,vision_sound
1934,14,210,120,1,2742.24805831909,vision_sound
1935,14,214,81,3,2628.30901145935,vision_sound
1936,14,215,73,1,4653.45692634583,vision_sound
1937,14,223,14,1,3053.84993553162,vision_sound
1938,14,254,78,3,8893.75400543213,vision_sound
1939,14,283,97,3,1223.80900382996,vision_sound
1940,14,289,137,2,3106.47296905518,vision_sound
1941,14,297,48,2,5584.25998687744,vision_sound
1942,14,302,69,2,6106.62198066711,vision_sound
1943,14,306,23,3,5893.05686950684,vision_sound
1944,14,307,60,1,9031.12602233887,vision_sound
1945,14,316,138,3,2998.30198287964,vision_sound
1946,14,319,34,1,7442.90494918823,vision_sound
1947,14,326,35,2,7121.15597724915,vision_sound
1948,14,332,15,2,4221.33207321167,vision_sound
1949,14,380,77,3,5747.03907966614,vision_sound
1950,15,1,141,3,4969.47598457336,vision_sound
1951,15,2,103,3,7937.44301795959,vision_sound
1952,15,3,22,2,801.532030105591,vision_sound
1953,15,4,71,3,796.03099822998,vision_sound
1954,15,5,47,2,1959.16295051575,vision_sound
1955,15,6,25,2,1718.65701675415,vision_sound
1956,15,7,121,3,4883.04710388184,vision_sound
1957,15,8,106,1,4812.18004226685,vision_sound
1958,15,9,115,1,2195.24788856506,vision_sound
1959,15,10,14,1,2974.65991973877,vision_sound
1960,15,11,70,3,5281.19611740112,vision_sound
1961,15,12,138,1,2967.50402450562,vision_sound
1962,15,13,114,2,20914.3869876862,vision_sound
1963,15,14,111,3,1478.34014892578,vision_sound
1964,15,15,137,1,1010.36405563354,vision_sound
1965,15,16,127,2,1658.47086906433,vision_sound
1966,15,17,136,1,9110.62908172607,vision_sound
1967,15,18,130,2,2970.77393531799,vision_sound
1968,15,19,98,1,1678.38287353516,vision_sound
1969,15,20,28,1,2357.17582702637,vision_sound
1970,15,21,113,2,852.942943572998,vision_sound
1971,15,22,85,2,7701.00593566895,vision_sound
1972,15,23,102,3,3415.07887840271,vision_sound
1973,15,24,51,3,753.450870513916,vision_sound
1974,15,25,15,2,17361.0119819641,vision_sound
1975,15,26,146,3,1642.41504669189,vision_sound
1976,15,27,2,3,1211.15589141846,vision_sound
1977,15,28,41,2,2986.84191703796,vision_sound
1978,15,29,134,1,5209.13887023926,vision_sound
1979,15,30,18,2,959.689140319824,vision_sound
1980,15,31,144,1,4761.72494888306,vision_sound
1981,15,32,56,3,2397.94015884399,vision_sound
1982,15,33,75,2,619.678020477295,vision_sound
1983,15,34,59,1,1352.05721855164,vision_sound
1984,15,35,112,3,5524.83510971069,vision_sound
1985,15,36,3,3,1778.11503410339,vision_sound
1986,15,37,35,1,5349.94411468506,vision_sound
1987,15,38,79,3,1158.28418731689,vision_sound
1988,15,39,94,3,6153.07688713074,vision_sound
1989,15,40,82,1,3437.56508827209,vision_sound
1990,15,41,6,3,4330.83009719849,vision_sound
1991,15,42,89,3,4098.87886047363,vision_sound
1992,15,43,33,2,2197.86882400513,vision_sound
1993,15,44,13,3,2263.99302482605,vision_sound
1994,15,45,32,1,2147.37486839294,vision_sound
1995,15,46,5,2,3457.44514465332,vision_sound
1996,15,47,92,2,533.684015274048,vision_sound
1997,15,48,148,3,11727.1091938019,vision_sound
1998,15,49,38,3,3920.37987709045,vision_sound
1999,15,50,140,2,3026.39102935791,vision_sound
2000,15,51,150,1,5025.18606185913,vision_sound
2001,15,52,24,3,1339.92099761963,vision_sound
2002,15,53,68,2,5260.74290275574,vision_sound
2003,15,54,93,2,12300.1148700714,vision_sound
2004,15,55,147,3,3768.00417900085,vision_sound
2005,15,56,31,2,6776.30186080933,vision_sound
2006,15,57,132,3,988.736867904663,vision_sound
2007,15,58,50,1,2439.39709663391,vision_sound
2008,15,59,61,3,1875.89907646179,vision_sound
2009,15,60,42,3,4089.16306495667,vision_sound
2010,15,61,36,3,3393.50700378418,vision_sound
2011,15,62,66,1,15194.916009903,vision_sound
2012,15,63,46,1,16175.5180358887,vision_sound
2013,15,64,40,2,14380.9530735016,vision_sound
2014,15,65,4,1,2240.91196060181,vision_sound
2015,15,66,95,2,23487.0250225067,vision_sound
2016,15,67,43,1,749.825000762939,vision_sound
2017,15,68,23,2,6000.44798851013,vision_sound
2018,15,69,96,2,1347.04995155334,vision_sound
2019,15,70,9,1,1886.3570690155,vision_sound
2020,15,71,90,1,10495.3169822693,vision_sound
2021,15,72,120,1,1980.87596893311,vision_sound
2022,15,73,108,3,1346.55117988586,vision_sound
2023,15,74,7,3,4345.81184387207,vision_sound
2024,15,75,27,2,2121.91486358643,vision_sound
2025,15,76,84,1,3815.24896621704,vision_sound
2026,15,77,123,2,3881.48307800293,vision_sound
2027,15,78,83,3,1606.6689491272,vision_sound
2028,15,79,16,3,1265.90609550476,vision_sound
2029,15,80,149,3,9272.9959487915,vision_sound
2030,15,81,105,3,1891.81017875671,vision_sound
2031,15,82,37,3,6638.06009292603,vision_sound
2032,15,84,21,1,2533.91098976135,vision_sound
2033,15,85,62,1,1944.77105140686,vision_sound
2034,15,86,69,3,5895.93482017517,vision_sound
2035,15,90,128,3,2937.08276748657,vision_sound
2036,15,91,125,2,4747.81680107117,vision_sound
2037,15,93,1,2,1408.93602371216,vision_sound
2038,15,94,49,2,4456.70294761658,vision_sound
2039,15,97,77,3,11663.6581420898,vision_sound
2040,15,98,86,3,6272.11999893188,vision_sound
2041,15,99,58,3,1916.07308387756,vision_sound
2042,15,100,17,3,1582.01599121094,vision_sound
2043,15,102,45,1,5437.97302246094,vision_sound
2044,15,103,99,1,3759.21702384949,vision_sound
2045,15,106,110,3,2517.48180389404,vision_sound
2046,15,107,142,1,2903.99193763733,vision_sound
2047,15,109,65,3,2782.81593322754,vision_sound
2048,15,111,116,1,911.187171936035,vision_sound
2049,15,112,117,3,3070.80101966858,vision_sound
2050,15,113,29,2,3574.11003112793,vision_sound
2051,15,114,131,1,1025.17914772034,vision_sound
2052,15,115,34,3,11712.1489048004,vision_sound
2053,15,118,100,3,7590.40307998657,vision_sound
2054,15,121,19,1,1694.76985931396,vision_sound
2055,15,122,135,3,4504.66704368591,vision_sound
2056,15,123,52,2,413.218021392822,vision_sound
2057,15,126,107,3,2383.66603851318,vision_sound
2058,15,127,64,3,2340.90995788574,vision_sound
2059,15,129,57,1,8363.06285858154,vision_sound
2060,15,132,20,1,1344.83504295349,vision_sound
2061,15,133,74,1,2605.32593727112,vision_sound
2062,15,139,80,2,3158.82205963135,vision_sound
2063,15,140,145,2,1267.64392852783,vision_sound
2064,15,142,55,2,2340.66605567932,vision_sound
2065,15,143,53,1,1913.28382492065,vision_sound
2066,15,144,11,1,10147.8018760681,vision_sound
2067,15,145,139,3,2313.3749961853,vision_sound
2068,15,148,30,1,3067.7969455719,vision_sound
2069,15,149,129,2,1940.73605537415,vision_sound
2070,15,154,81,3,1665.01593589783,vision_sound
2071,15,156,12,1,3292.57893562317,vision_sound
2072,15,158,26,3,2226.6058921814,vision_sound
2073,15,163,76,1,1986.22393608093,vision_sound
2074,15,166,133,3,3961.1599445343,vision_sound
2075,15,170,8,3,2278.01489830017,vision_sound
2076,15,173,67,3,2129.075050354,vision_sound
2077,15,179,60,1,2267.84205436707,vision_sound
2078,15,183,44,3,807.769060134888,vision_sound
2079,15,186,78,1,3800.08983612061,vision_sound
2080,15,190,124,3,2695.60885429382,vision_sound
2081,15,192,101,1,2175.19402503967,vision_sound
2082,15,196,73,3,6453.73320579529,vision_sound
2083,15,207,104,1,7164.56890106201,vision_sound
2084,15,210,72,1,1529.95491027832,vision_sound
2085,15,214,143,1,1714.44010734558,vision_sound
2086,15,215,97,1,3605.92198371887,vision_sound
2087,15,223,88,1,4163.59996795654,vision_sound
2088,15,254,87,1,3757.81798362732,vision_sound
2089,15,283,91,1,4094.05112266541,vision_sound
2090,15,289,63,1,6413.7179851532,vision_sound
2091,15,297,126,1,7906.32891654968,vision_sound
2092,15,302,48,1,1814.75901603699,vision_sound
2093,15,306,109,3,2378.44395637512,vision_sound
2094,15,307,54,1,4050.50110816956,vision_sound
2095,15,316,10,3,3957.98182487488,vision_sound
2096,15,319,119,1,2074.56398010254,vision_sound
2097,15,326,118,1,1543.33019256592,vision_sound
2098,15,332,122,1,1259.11688804626,vision_sound
2099,15,380,39,3,7635.1170539856,vision_sound
2100,16,1,24,2,1297.5640296936,vision_sound
2101,16,2,18,2,1672.10507392883,vision_sound
2102,16,3,104,2,1014.63007926941,vision_sound
2103,16,4,30,3,1080.49082756042,vision_sound
2104,16,5,20,3,1186.35678291321,vision_sound
2105,16,6,62,2,1255.17201423645,vision_sound
2106,16,7,102,2,4051.49412155151,vision_sound
2107,16,8,112,2,1345.25108337402,vision_sound
2108,16,9,21,1,1022.73488044739,vision_sound
2109,16,10,107,2,1051.93209648132,vision_sound
2110,16,11,80,3,1334.35106277466,vision_sound
2111,16,12,133,1,1480.99207878113,vision_sound
2112,16,13,31,2,1577.9139995575,vision_sound
2113,16,14,34,3,2129.06408309937,vision_sound
2114,16,15,15,1,1144.68908309937,vision_sound
2115,16,16,60,1,1128.71122360229,vision_sound
2116,16,17,6,2,2457.65900611877,vision_sound
2117,16,18,36,1,1134.17482376099,vision_sound
2118,16,19,132,1,1109.2050075531,vision_sound
2119,16,20,143,1,1310.73999404907,vision_sound
2120,16,21,32,2,1054.84914779663,vision_sound
2121,16,22,118,2,1677.2038936615,vision_sound
2122,16,23,79,3,1361.31381988525,vision_sound
2123,16,24,137,3,1240.21506309509,vision_sound
2124,16,25,130,2,1820.49798965454,vision_sound
2125,16,26,41,3,2254.78410720825,vision_sound
2126,16,27,121,3,1044.16799545288,vision_sound
2127,16,28,87,3,1367.2149181366,vision_sound
2128,16,29,51,3,2209.11717414856,vision_sound
2129,16,30,113,2,957.424879074097,vision_sound
2130,16,31,50,2,1463.21702003479,vision_sound
2131,16,32,3,2,2314.67485427856,vision_sound
2132,16,33,146,2,962.018013000488,vision_sound
2133,16,34,57,1,1946.8629360199,vision_sound
2134,16,35,40,3,6746.51598930359,vision_sound
2135,16,36,4,2,2298.00891876221,vision_sound
2136,16,37,72,2,1698.91786575317,vision_sound
2137,16,38,97,3,1188.57717514038,vision_sound
2138,16,39,66,2,1187.64090538025,vision_sound
2139,16,40,27,1,1917.11497306824,vision_sound
2140,16,41,38,3,2021.49105072021,vision_sound
2141,16,42,59,3,5979.33483123779,vision_sound
2142,16,43,126,1,1732.63216018677,vision_sound
2143,16,44,53,2,5568.55702400208,vision_sound
2144,16,45,52,1,1138.72098922729,vision_sound
2145,16,46,48,3,1364.64214324951,vision_sound
2146,16,47,67,3,3541.04495048523,vision_sound
2147,16,48,120,2,1652.70304679871,vision_sound
2148,16,49,119,3,1373.19707870483,vision_sound
2149,16,50,7,3,1234.1480255127,vision_sound
2150,16,51,29,2,3045.56894302368,vision_sound
2151,16,52,26,3,1649.62816238403,vision_sound
2152,16,53,44,2,2689.64910507202,vision_sound
2153,16,54,103,3,2181.72812461853,vision_sound
2154,16,55,56,3,1736.89103126526,vision_sound
2155,16,56,115,2,1513.60106468201,vision_sound
2156,16,57,43,3,2398.07200431824,vision_sound
2157,16,58,117,2,1034.21497344971,vision_sound
2158,16,59,39,1,3210.23392677307,vision_sound
2159,16,60,135,3,1945.41096687317,vision_sound
2160,16,61,114,3,2362.85781860352,vision_sound
2161,16,62,9,1,2927.91891098022,vision_sound
2162,16,63,84,1,2188.26913833618,vision_sound
2163,16,64,17,3,1178.16591262817,vision_sound
2164,16,65,13,1,1316.27202033997,vision_sound
2165,16,66,28,1,1183.34102630615,vision_sound
2166,16,67,19,1,1188.89617919922,vision_sound
2167,16,68,127,3,1542.46497154236,vision_sound
2168,16,69,109,2,1071.94805145264,vision_sound
2169,16,70,1,1,1337.34893798828,vision_sound
2170,16,71,82,2,1620.87798118591,vision_sound
2171,16,72,92,1,895.798206329346,vision_sound
2172,16,73,147,3,891.620874404907,vision_sound
2173,16,74,139,2,1083.79292488098,vision_sound
2174,16,75,124,2,1101.70602798462,vision_sound
2175,16,76,99,1,926.532030105591,vision_sound
2176,16,77,23,3,1224.40314292908,vision_sound
2177,16,78,100,1,1656.31318092346,vision_sound
2178,16,79,91,3,965.595960617065,vision_sound
2179,16,80,142,3,1332.5560092926,vision_sound
2180,16,81,54,3,2035.58802604675,vision_sound
2181,16,82,108,3,3105.83806037903,vision_sound
2182,16,84,140,1,4659.47604179382,vision_sound
2183,16,85,101,2,1235.78786849976,vision_sound
2184,16,86,8,3,1126.45292282104,vision_sound
2185,16,90,70,3,1498.72803688049,vision_sound
2186,16,91,42,2,1899.13892745972,vision_sound
2187,16,93,16,2,1239.92109298706,vision_sound
2188,16,94,106,2,1422.523021698,vision_sound
2189,16,97,81,2,2321.92397117615,vision_sound
2190,16,98,144,3,2698.43983650208,vision_sound
2191,16,99,138,3,2167.15788841248,vision_sound
2192,16,100,88,3,1505.27787208557,vision_sound
2193,16,102,131,3,2070.15013694763,vision_sound
2194,16,103,2,1,1114.6559715271,vision_sound
2195,16,106,55,3,1956.43091201782,vision_sound
2196,16,107,73,3,2273.45705032349,vision_sound
2197,16,109,75,3,1632.493019104,vision_sound
2198,16,111,110,1,1119.73404884338,vision_sound
2199,16,112,11,3,1322.28183746338,vision_sound
