,participant,trial,order,response,rt,experiment
0,1,1,70,3,4573.333024978638,occluded
1,1,2,30,3,4778.310060501099,occluded
2,1,3,147,2,897.493839263916,occluded
3,1,4,109,3,722.5100994110107,occluded
4,1,5,43,1,11113.867044448853,occluded
5,1,6,128,1,4141.5839195251465,occluded
6,1,7,64,3,4511.085987091064,occluded
7,1,8,10,1,4079.0600776672363,occluded
8,1,9,28,3,2132.3320865631104,occluded
9,1,10,81,1,1548.734188079834,occluded
10,1,11,111,3,2357.043981552124,occluded
11,1,12,102,3,1136.457920074463,occluded
12,1,13,27,1,5137.531042098999,occluded
13,1,14,144,3,9561.21277809143,occluded
14,1,15,80,1,2378.4430027008057,occluded
15,1,16,20,2,2639.127016067505,occluded
16,1,17,57,1,1610.4340553283691,occluded
17,1,18,143,2,1452.359914779663,occluded
18,1,19,41,1,1274.216890335083,occluded
19,1,20,67,1,8623.751878738403,occluded
20,1,21,6,2,2296.121120452881,occluded
21,1,22,95,3,1469.167947769165,occluded
22,1,23,137,2,3395.9178924560547,occluded
23,1,24,71,3,749.4020462036133,occluded
24,1,25,68,2,6375.046968460083,occluded
25,1,26,38,3,871.7920780181885,occluded
26,1,27,100,3,841.0570621490479,occluded
27,1,28,24,1,11787.414073944092,occluded
28,1,29,124,1,2120.3250885009766,occluded
29,1,30,23,2,1240.8268451690674,occluded
30,1,31,69,1,2854.4249534606934,occluded
31,1,32,121,1,1287.7261638641357,occluded
32,1,33,101,2,764.5699977874756,occluded
33,1,34,93,3,3994.861125946045,occluded
34,1,35,91,1,1894.3519592285156,occluded
35,1,36,50,3,2153.5091400146484,occluded
36,1,37,83,2,4672.457933425903,occluded
37,1,38,85,3,3468.080997467041,occluded
38,1,39,52,1,1378.8418769836426,occluded
39,1,40,58,1,4872.052907943726,occluded
40,1,41,5,1,7960.47306060791,occluded
41,1,42,49,1,2670.4609394073486,occluded
42,1,43,130,1,979.0480136871338,occluded
43,1,44,123,2,1330.6851387023926,occluded
44,1,45,82,2,4649.991989135742,occluded
45,1,46,11,1,3357.923984527588,occluded
46,1,47,13,2,3788.1829738616943,occluded
47,1,48,79,3,1994.2290782928467,occluded
48,1,49,65,3,5332.65495300293,occluded
49,1,50,15,2,5136.362075805664,occluded
50,1,51,14,1,15877.779006958008,occluded
51,1,52,117,3,1578.866958618164,occluded
52,1,53,149,2,2288.517951965332,occluded
53,1,54,125,2,3964.8079872131348,occluded
54,1,55,107,2,1131.316900253296,occluded
55,1,56,44,2,4195.448875427246,occluded
56,1,57,8,3,999.7069835662842,occluded
57,1,58,73,3,1351.505994796753,occluded
58,1,59,3,3,4537.7678871154785,occluded
59,1,60,94,1,1196.6888904571533,occluded
60,1,61,142,1,2132.718086242676,occluded
61,1,62,2,3,6338.1187915802,occluded
62,1,63,45,2,7946.02108001709,occluded
63,1,64,29,1,2437.542200088501,occluded
64,1,65,108,3,1442.3987865447998,occluded
65,1,66,9,1,2965.3148651123047,occluded
66,1,67,146,1,879.3869018554688,occluded
67,1,68,32,2,2816.7731761932373,occluded
68,1,69,36,2,982.8178882598877,occluded
69,1,70,7,3,3131.6311359405518,occluded
70,1,71,55,1,1056.8621158599854,occluded
71,1,72,135,3,3550.5309104919434,occluded
72,1,73,77,3,1495.2070713043213,occluded
73,1,74,53,2,1733.9868545532227,occluded
74,1,75,110,1,1694.4928169250488,occluded
75,1,76,86,1,7760.7738971710205,occluded
76,1,77,140,2,4093.456029891968,occluded
77,1,78,103,2,870.9089756011963,occluded
78,1,79,54,3,869.6908950805664,occluded
79,1,80,89,3,1367.0029640197754,occluded
80,1,81,21,3,5475.812196731567,occluded
81,1,82,18,3,5215.291976928711,occluded
82,1,84,59,1,4913.156032562256,occluded
83,1,85,138,2,1251.9278526306152,occluded
84,1,86,118,3,2252.2408962249756,occluded
85,1,90,72,3,5688.629865646362,occluded
86,1,91,42,2,4239.619970321655,occluded
87,1,93,47,2,933.4380626678467,occluded
88,1,94,84,2,3411.2510681152344,occluded
89,1,97,1,1,6868.5150146484375,occluded
90,1,98,134,3,2805.13596534729,occluded
91,1,99,17,1,6472.631931304932,occluded
92,1,100,22,1,3747.5709915161133,occluded
93,1,102,74,2,1656.167984008789,occluded
94,1,103,97,1,1840.2070999145508,occluded
95,1,106,141,2,6130.361080169678,occluded
96,1,107,122,1,833.8301181793213,occluded
97,1,109,88,2,2058.1889152526855,occluded
98,1,111,104,1,935.1871013641357,occluded
99,1,112,61,2,1546.8249320983887,occluded
100,1,113,4,3,9377.787113189697,occluded
101,1,114,51,1,3343.913793563843,occluded
102,1,115,139,3,2509.850025177002,occluded
103,1,118,113,2,1906.2600135803223,occluded
104,1,121,92,1,2284.9600315093994,occluded
105,1,122,90,3,2872.4069595336914,occluded
106,1,123,145,1,2550.469160079956,occluded
107,1,126,33,3,1933.4571361541748,occluded
108,1,127,62,1,2109.452962875366,occluded
109,1,129,63,1,1919.8698997497559,occluded
110,1,132,76,2,1511.8539333343506,occluded
111,1,133,129,2,2980.721950531006,occluded
112,1,139,56,2,1338.3100032806396,occluded
113,1,140,133,1,1650.4418849945068,occluded
114,1,142,131,2,7007.389068603516,occluded
115,1,143,105,2,1129.9769878387451,occluded
116,1,144,31,1,6804.497003555298,occluded
117,1,145,37,2,11597.944974899292,occluded
118,1,148,25,1,2164.151906967163,occluded
119,1,149,112,2,1899.7750282287598,occluded
120,1,154,60,3,1639.6420001983643,occluded
121,1,156,19,3,13507.84707069397,occluded
122,1,158,148,3,2277.1999835968018,occluded
123,1,163,35,2,4996.361970901489,occluded
124,1,166,114,2,1456.7971229553223,occluded
125,1,170,87,1,3433.6369037628174,occluded
126,1,173,99,2,1229.2258739471436,occluded
127,1,179,126,2,2617.600917816162,occluded
128,1,183,12,3,1614.0761375427246,occluded
129,1,186,40,1,3472.342014312744,occluded
130,1,190,75,3,3926.893949508667,occluded
131,1,192,48,2,3386.976957321167,occluded
132,1,196,127,3,2159.291982650757,occluded
133,1,207,120,1,4424.196004867554,occluded
134,1,210,119,1,1802.711009979248,occluded
135,1,214,26,3,6408.355951309204,occluded
136,1,215,116,1,2631.3350200653076,occluded
137,1,223,106,1,1410.5608463287354,occluded
138,1,254,98,1,1721.5170860290527,occluded
139,1,283,46,3,4481.417894363403,occluded
140,1,289,39,1,4626.8470287323,occluded
141,1,297,115,1,1526.2770652770996,occluded
142,1,302,66,3,5634.588003158569,occluded
143,1,306,34,3,7171.564102172852,occluded
144,1,307,16,1,9930.546998977661,occluded
145,1,316,96,3,2323.9920139312744,occluded
146,1,319,78,1,2053.7679195404053,occluded
147,1,326,136,3,2944.417953491211,occluded
148,1,332,150,2,2738.870143890381,occluded
149,1,380,132,3,3118.381977081299,occluded
150,2,1,78,3,2573.997974395752,occluded
151,2,2,70,3,3706.1169147491455,occluded
152,2,3,71,2,748.63600730896,occluded
153,2,4,44,3,1021.5699672698975,occluded
154,2,5,61,2,6667.9182052612305,occluded
155,2,6,52,1,4217.469930648804,occluded
156,2,7,137,3,2553.683042526245,occluded
157,2,8,14,3,8532.148122787476,occluded
158,2,9,145,3,2618.115186691284,occluded
159,2,10,123,1,1712.317943572998,occluded
160,2,11,59,3,4577.440023422241,occluded
161,2,12,49,3,4257.897138595581,occluded
162,2,13,21,1,4244.29988861084,occluded
163,2,14,57,3,3420.0680255889893,occluded
164,2,15,104,3,1999.6089935302734,occluded
165,2,16,58,2,2766.916036605835,occluded
166,2,17,56,1,2479.8951148986816,occluded
167,2,18,129,3,3529.7069549560547,occluded
168,2,19,98,1,1620.2788352966309,occluded
169,2,20,82,3,2557.4309825897217,occluded
170,2,21,141,2,824.7361183166504,occluded
171,2,22,102,3,3172.6207733154297,occluded
172,2,23,119,2,2922.785997390747,occluded
173,2,24,84,3,726.0558605194092,occluded
174,2,25,50,2,4197.288036346436,occluded
175,2,26,81,3,3206.4919471740723,occluded
176,2,27,55,3,726.0458469390869,occluded
177,2,28,10,1,2432.723045349121,occluded
178,2,29,66,1,1280.6110382080078,occluded
179,2,30,105,2,760.4410648345947,occluded
180,2,31,89,1,2797.348976135254,occluded
181,2,32,75,1,3018.343925476074,occluded
182,2,33,23,2,1109.3809604644775,occluded
183,2,34,73,3,2475.827217102051,occluded
184,2,35,33,1,3697.24702835083,occluded
185,2,36,142,3,3024.8990058898926,occluded
186,2,37,1,1,2575.6280422210693,occluded
187,2,38,19,3,4093.449115753174,occluded
188,2,39,107,1,8095.547199249268,occluded
189,2,40,46,1,4498.232841491699,occluded
190,2,41,35,3,2925.8389472961426,occluded
191,2,42,15,1,7022.291898727417,occluded
192,2,43,17,1,2916.2981510162354,occluded
193,2,44,67,2,4377.124071121216,occluded
194,2,45,43,2,2908.8809490203857,occluded
195,2,46,93,2,3920.325994491577,occluded
196,2,47,86,2,1837.2609615325928,occluded
197,2,48,77,3,5323.776006698608,occluded
198,2,49,85,3,5534.22999382019,occluded
199,2,50,91,3,2562.3278617858887,occluded
200,2,51,122,3,2272.4080085754395,occluded
201,2,52,3,3,5635.4241371154785,occluded
202,2,53,25,2,5737.936019897461,occluded
203,2,54,144,2,1875.8912086486816,occluded
204,2,55,114,2,3085.8709812164307,occluded
205,2,56,30,2,4407.233953475952,occluded
206,2,57,118,3,931.7469596862793,occluded
207,2,58,149,1,2987.549066543579,occluded
208,2,59,115,3,2380.669116973877,occluded
209,2,60,90,1,2357.4509620666504,occluded
210,2,61,39,1,2911.3991260528564,occluded
211,2,62,13,3,3884.1540813446045,occluded
212,2,63,74,1,2501.605987548828,occluded
213,2,64,40,2,4433.243989944458,occluded
214,2,65,53,3,3612.766981124878,occluded
215,2,66,116,2,4257.291078567505,occluded
216,2,67,87,1,877.0439624786377,occluded
217,2,68,111,2,2147.331953048706,occluded
218,2,69,140,2,1103.6200523376465,occluded
219,2,70,4,3,4335.832118988037,occluded
220,2,71,6,1,6919.638872146606,occluded
221,2,72,96,1,1936.755895614624,occluded
222,2,73,27,3,1590.2340412139893,occluded
223,2,74,37,2,2094.003915786743,occluded
224,2,75,135,1,3781.71706199646,occluded
225,2,76,9,3,7335.952997207642,occluded
226,2,77,108,2,3954.824924468994,occluded
227,2,78,72,2,9095.302820205688,occluded
228,2,79,130,3,802.0520210266113,occluded
229,2,80,92,1,2264.4150257110596,occluded
230,2,81,26,3,6142.0910358428955,occluded
231,2,82,41,3,4086.348056793213,occluded
232,2,84,113,1,3204.7760486602783,occluded
233,2,85,128,2,3914.3619537353516,occluded
234,2,86,136,3,2525.7821083068848,occluded
235,2,90,110,3,2306.391954421997,occluded
236,2,91,22,2,3376.5759468078613,occluded
237,2,93,79,2,679.1200637817383,occluded
238,2,94,143,2,2319.010019302368,occluded
239,2,97,120,1,5107.048034667969,occluded
240,2,98,18,3,4978.355169296265,occluded
241,2,99,138,3,3550.46010017395,occluded
242,2,100,16,1,3355.9939861297607,occluded
243,2,102,65,1,3100.862979888916,occluded
244,2,103,83,1,4090.1060104370117,occluded
245,2,106,146,2,2223.278045654297,occluded
246,2,107,63,1,4592.286825180054,occluded
247,2,109,150,2,1924.9508380889893,occluded
248,2,111,125,1,1170.2980995178223,occluded
249,2,112,45,3,2051.654100418091,occluded
250,2,113,51,2,4523.214101791382,occluded
251,2,114,109,2,1706.8040370941162,occluded
252,2,115,124,3,3182.1370124816895,occluded
253,2,118,106,2,4508.597135543823,occluded
254,2,121,131,3,4793.584108352661,occluded
255,2,122,7,1,4024.718999862671,occluded
256,2,123,103,1,4000.9801387786865,occluded
257,2,126,133,3,2803.4799098968506,occluded
258,2,127,80,1,2350.2001762390137,occluded
259,2,129,62,1,1894.9849605560303,occluded
260,2,132,32,2,6282.264947891235,occluded
261,2,133,24,2,8566.303014755249,occluded
262,2,139,97,2,3222.888946533203,occluded
263,2,140,95,1,2292.941093444824,occluded
264,2,142,64,2,3712.3870849609375,occluded
265,2,143,68,3,2326.585054397583,occluded
266,2,144,94,1,1803.7068843841553,occluded
267,2,145,42,2,4765.056133270264,occluded
268,2,148,69,1,2608.687162399292,occluded
269,2,149,132,2,5068.655014038086,occluded
270,2,154,76,3,776.6520977020264,occluded
271,2,156,48,3,4206.493854522705,occluded
272,2,158,47,3,2834.1989517211914,occluded
273,2,163,134,1,1474.294900894165,occluded
274,2,166,29,3,6573.390960693359,occluded
275,2,170,147,2,3461.6899490356445,occluded
276,2,173,139,2,3265.1898860931396,occluded
277,2,179,126,3,6464.97106552124,occluded
278,2,183,100,3,1013.8731002807617,occluded
279,2,186,34,2,5496.416807174683,occluded
280,2,190,148,3,4566.241025924683,occluded
281,2,192,2,2,8537.396907806396,occluded
282,2,196,112,3,3148.2229232788086,occluded
283,2,207,88,1,2735.9910011291504,occluded
284,2,210,121,1,4184.525012969971,occluded
285,2,214,99,3,2378.7941932678223,occluded
286,2,215,8,1,6458.059072494507,occluded
287,2,223,5,1,3566.934823989868,occluded
288,2,254,11,1,4124.850034713745,occluded
289,2,283,101,3,4692.128896713257,occluded
290,2,289,20,2,5718.374967575073,occluded
291,2,297,31,3,3739.7208213806152,occluded
292,2,302,60,2,3358.091115951538,occluded
293,2,306,36,1,3562.472105026245,occluded
294,2,307,38,1,5252.697944641113,occluded
295,2,316,54,3,2928.7211894989014,occluded
296,2,319,117,1,3887.179136276245,occluded
297,2,326,28,2,4510.4780197143555,occluded
298,2,332,12,3,6577.325105667114,occluded
299,2,380,127,3,2077.4450302124023,occluded
300,3,1,144,3,7033.268213272095,occluded
301,3,2,44,3,9194.845914840698,occluded
302,3,3,22,2,3926.4729022979736,occluded
303,3,4,63,3,930.8221340179443,occluded
304,3,5,94,2,2293.9701080322266,occluded
305,3,6,77,1,8637.876033782959,occluded
306,3,7,24,3,3468.991994857788,occluded
307,3,8,93,1,14644.620895385742,occluded
308,3,9,15,1,8821.250915527344,occluded
309,3,10,125,1,1496.1879253387451,occluded
310,3,11,115,3,4539.902925491333,occluded
311,3,12,127,1,2862.238883972168,occluded
312,3,13,143,1,1450.1891136169434,occluded
313,3,14,132,3,2513.421058654785,occluded
314,3,15,78,1,673.7051010131836,occluded
315,3,16,27,2,5510.500907897949,occluded
316,3,17,102,2,1238.9349937438965,occluded
317,3,18,16,2,4047.8289127349854,occluded
318,3,19,67,1,871.6340065002441,occluded
319,3,20,6,1,32078.0508518219,occluded
320,3,21,45,2,742.8431510925293,occluded
321,3,22,70,2,8098.839998245239,occluded
322,3,23,116,2,2718.9531326293945,occluded
323,3,24,108,3,574.9638080596924,occluded
324,3,25,80,2,6715.131044387817,occluded
325,3,26,101,3,439.8009777069092,occluded
326,3,27,64,3,634.8080635070801,occluded
327,3,28,103,2,4946.211814880371,occluded
328,3,29,46,1,2730.7400703430176,occluded
329,3,30,19,2,1488.1269931793213,occluded
330,3,31,113,1,1605.107069015503,occluded
331,3,32,82,3,4290.431022644043,occluded
332,3,33,95,2,593.721866607666,occluded
333,3,34,117,1,12432.783842086792,occluded
334,3,35,54,1,9461.390972137451,occluded
335,3,36,40,3,7474.407911300659,occluded
336,3,37,14,2,7289.571046829224,occluded
337,3,38,91,3,4232.399940490723,occluded
338,3,39,34,1,8809.813976287842,occluded
339,3,40,139,1,2147.0320224761963,occluded
340,3,41,134,3,2774.379014968872,occluded
341,3,42,7,1,43442.506074905396,occluded
342,3,43,84,1,1204.7550678253174,occluded
343,3,44,41,3,14587.446928024292,occluded
344,3,45,86,1,4534.877061843872,occluded
345,3,46,1,2,13079.138994216919,occluded
346,3,47,121,2,1583.6129188537598,occluded
347,3,48,122,1,4277.7259349823,occluded
348,3,49,87,1,1663.996934890747,occluded
349,3,50,39,2,2571.4058876037598,occluded
350,3,51,104,1,2168.0359840393066,occluded
351,3,52,12,3,23181.046962738037,occluded
352,3,53,90,2,3440.6371116638184,occluded
353,3,54,33,2,12781.392812728882,occluded
354,3,55,130,3,4833.363056182861,occluded
355,3,56,112,2,2676.544189453125,occluded
356,3,57,107,3,579.1878700256348,occluded
357,3,58,52,2,2101.0830402374268,occluded
358,3,59,38,3,6504.728078842163,occluded
359,3,60,17,2,8894.243001937866,occluded
360,3,61,92,3,4041.2049293518066,occluded
361,3,62,133,3,8316.232204437256,occluded
362,3,63,56,1,6322.639942169189,occluded
363,3,64,55,2,9380.60188293457,occluded
364,3,65,119,1,4405.853986740112,occluded
365,3,66,20,2,13582.006931304932,occluded
366,3,67,83,1,602.125883102417,occluded
367,3,68,3,2,13454.994916915894,occluded
368,3,69,114,2,621.5641498565674,occluded
369,3,70,4,1,11173.676013946533,occluded
370,3,71,147,2,7101.838111877441,occluded
371,3,72,30,1,7656.038999557495,occluded
372,3,73,124,3,453.83286476135254,occluded
373,3,74,85,2,2230.4160594940186,occluded
374,3,75,57,2,3291.764974594116,occluded
375,3,76,136,1,8288.613080978394,occluded
376,3,77,145,2,11515.6090259552,occluded
377,3,78,31,2,3721.9882011413574,occluded
378,3,79,21,3,4237.022876739502,occluded
379,3,80,72,1,5927.632093429565,occluded
380,3,81,13,3,16116.295099258423,occluded
381,3,82,18,3,13113.192081451416,occluded
382,3,84,149,1,2521.9321250915527,occluded
383,3,85,61,2,12272.168159484863,occluded
384,3,86,51,3,5947.568893432617,occluded
385,3,90,74,3,4617.147922515869,occluded
386,3,91,96,2,2012.516975402832,occluded
387,3,93,50,2,738.3739948272705,occluded
388,3,94,49,2,8615.921020507812,occluded
389,3,97,10,1,15330.002069473267,occluded
390,3,98,129,3,6192.522048950195,occluded
391,3,99,141,3,1185.3580474853516,occluded
392,3,100,99,3,9336.159944534302,occluded
393,3,102,100,2,1895.8311080932617,occluded
394,3,103,9,1,17864.84694480896,occluded
395,3,106,48,3,4502.799987792969,occluded
396,3,107,11,1,3470.0710773468018,occluded
397,3,109,79,3,4978.508949279785,occluded
398,3,111,131,1,623.4688758850098,occluded
399,3,112,58,2,7072.767019271851,occluded
400,3,113,25,3,19270.79701423645,occluded
401,3,114,75,1,668.287992477417,occluded
402,3,115,42,3,7981.543064117432,occluded
403,3,118,71,3,3595.1311588287354,occluded
404,3,121,105,2,2460.319995880127,occluded
405,3,122,5,1,5531.239986419678,occluded
406,3,123,60,3,8816.49112701416,occluded
407,3,126,146,3,1905.3819179534912,occluded
408,3,127,32,1,1689.0339851379395,occluded
409,3,129,142,1,6623.466968536377,occluded
410,3,132,8,2,18207.77201652527,occluded
411,3,133,29,1,26470.810174942017,occluded
412,3,139,2,2,7079.306125640869,occluded
413,3,140,65,1,724.3208885192871,occluded
414,3,142,26,2,4379.7760009765625,occluded
415,3,143,47,3,5526.4880657196045,occluded
416,3,144,128,1,5557.32798576355,occluded
417,3,145,89,3,12478.173971176147,occluded
418,3,148,76,1,2078.5160064697266,occluded
419,3,149,81,2,5204.066038131714,occluded
420,3,154,62,3,1671.083927154541,occluded
421,3,156,135,3,3577.7790546417236,occluded
422,3,158,126,3,3729.6040058135986,occluded
423,3,163,98,1,14259.222030639648,occluded
424,3,166,36,3,8483.997821807861,occluded
425,3,170,111,2,2978.78098487854,occluded
426,3,173,138,1,5077.794075012207,occluded
427,3,179,120,1,3312.870979309082,occluded
428,3,183,140,3,798.0239391326904,occluded
429,3,186,43,1,7091.8920040130615,occluded
430,3,190,109,1,4090.714931488037,occluded
431,3,192,37,1,4321.893930435181,occluded
432,3,196,110,3,3259.1311931610107,occluded
433,3,207,59,1,6856.2750816345215,occluded
434,3,210,97,1,4121.9940185546875,occluded
435,3,214,137,2,2455.7578563690186,occluded
436,3,215,73,1,3232.840061187744,occluded
437,3,223,118,1,5421.442031860352,occluded
438,3,254,23,3,8987.186908721924,occluded
439,3,283,150,1,5587.885141372681,occluded
440,3,289,123,2,2396.190881729126,occluded
441,3,297,148,3,4601.037979125977,occluded
442,3,302,106,1,6233.704090118408,occluded
443,3,306,66,3,6185.821056365967,occluded
444,3,307,35,1,10265.297889709473,occluded
445,3,316,28,2,1900.174856185913,occluded
446,3,319,69,1,4973.9580154418945,occluded
447,3,326,53,2,2972.7389812469482,occluded
448,3,332,68,1,13549.27110671997,occluded
449,3,380,88,3,7026.718854904175,occluded
450,4,1,93,3,2975.0349521636963,occluded
451,4,2,138,3,3464.1289710998535,occluded
452,4,3,123,2,668.5450077056885,occluded
453,4,4,130,3,648.3352184295654,occluded
454,4,5,106,2,2659.2679023742676,occluded
455,4,6,3,1,6281.7230224609375,occluded
456,4,7,20,3,3394.0269947052,occluded
457,4,8,69,3,5831.902980804443,occluded
458,4,9,122,1,2494.579792022705,occluded
459,4,10,50,3,3341.3071632385254,occluded
460,4,11,98,3,1297.2850799560547,occluded
461,4,12,78,1,2873.237133026123,occluded
462,4,13,84,1,3592.074155807495,occluded
463,4,14,54,3,1912.611961364746,occluded
464,4,15,83,1,2331.015110015869,occluded
465,4,16,67,2,3948.012113571167,occluded
466,4,17,100,1,2884.1028213500977,occluded
467,4,18,16,2,2283.950090408325,occluded
468,4,19,41,1,1538.7120246887207,occluded
469,4,20,79,1,5661.996841430664,occluded
470,4,21,64,2,711.9190692901611,occluded
471,4,22,140,3,6645.831823348999,occluded
472,4,23,17,1,3995.3908920288086,occluded
473,4,24,32,3,2752.5148391723633,occluded
474,4,25,115,1,4391.788959503174,occluded
475,4,26,144,3,627.3050308227539,occluded
476,4,27,149,3,678.8320541381836,occluded
477,4,28,48,2,3814.2387866973877,occluded
478,4,29,72,1,1933.5830211639404,occluded
479,4,30,33,2,1174.004077911377,occluded
480,4,31,28,1,4071.160078048706,occluded
481,4,32,11,3,3809.8530769348145,occluded
482,4,33,43,2,770.0231075286865,occluded
483,4,34,61,1,5246.03796005249,occluded
484,4,35,74,3,2789.7210121154785,occluded
485,4,36,120,3,4731.019973754883,occluded
486,4,37,109,2,2879.7199726104736,occluded
487,4,38,143,3,1465.4200077056885,occluded
488,4,39,12,1,3527.6567935943604,occluded
489,4,40,10,1,4078.1960487365723,occluded
490,4,41,141,1,2441.3089752197266,occluded
491,4,42,25,1,5369.878053665161,occluded
492,4,43,145,1,1123.216152191162,occluded
493,4,44,39,3,5452.11386680603,occluded
494,4,45,26,2,6580.904960632324,occluded
495,4,46,7,2,4164.541006088257,occluded
496,4,47,134,2,4133.649826049805,occluded
497,4,48,58,3,3754.2169094085693,occluded
498,4,49,94,3,3011.6758346557617,occluded
499,4,50,150,2,2771.8658447265625,occluded
500,4,51,35,3,5429.460048675537,occluded
501,4,52,82,3,5181.082010269165,occluded
502,4,53,102,2,3394.8960304260254,occluded
503,4,54,68,2,5345.813989639282,occluded
504,4,55,126,2,2479.0239334106445,occluded
505,4,56,139,2,1116.347074508667,occluded
506,4,57,73,3,745.3310489654541,occluded
507,4,58,146,3,1812.9489421844482,occluded
508,4,59,4,1,7347.704887390137,occluded
509,4,60,80,1,2460.8089923858643,occluded
510,4,61,6,1,2485.463857650757,occluded
511,4,62,101,3,2777.193784713745,occluded
512,4,63,76,2,1178.3490180969238,occluded
513,4,64,88,2,2818.9470767974854,occluded
514,4,65,37,1,3618.9229488372803,occluded
515,4,66,66,3,2265.2361392974854,occluded
516,4,67,147,1,663.642168045044,occluded
517,4,68,30,2,3928.194999694824,occluded
518,4,69,77,2,803.6282062530518,occluded
519,4,70,34,3,7482.768774032593,occluded
520,4,71,13,3,5511.880874633789,occluded
521,4,72,91,1,1364.0720844268799,occluded
522,4,73,119,3,864.8030757904053,occluded
523,4,74,105,2,1224.9460220336914,occluded
524,4,75,56,1,2821.635961532593,occluded
525,4,76,15,1,4277.719020843506,occluded
526,4,77,95,2,4978.420972824097,occluded
527,4,78,104,3,4196.17486000061,occluded
528,4,79,52,3,1025.5639553070068,occluded
529,4,80,36,1,2698.9359855651855,occluded
530,4,81,142,3,3421.8270778656006,occluded
531,4,82,51,3,2955.5399417877197,occluded
532,4,84,2,1,2926.184892654419,occluded
533,4,85,129,1,4135.613918304443,occluded
534,4,86,89,2,4537.168025970459,occluded
535,4,90,96,3,2252.5060176849365,occluded
536,4,91,81,2,2464.445114135742,occluded
537,4,93,55,2,754.9049854278564,occluded
538,4,94,57,2,2893.7079906463623,occluded
539,4,97,97,1,4047.6911067962646,occluded
540,4,98,46,3,2950.4458904266357,occluded
541,4,99,133,3,2008.3670616149902,occluded
542,4,100,128,1,7602.942943572998,occluded
543,4,102,29,2,3875.872850418091,occluded
544,4,103,47,1,4656.9671630859375,occluded
545,4,106,87,2,3159.311056137085,occluded
546,4,107,135,1,1926.8708229064941,occluded
547,4,109,114,3,3285.780906677246,occluded
548,4,111,90,1,777.4999141693115,occluded
549,4,112,62,3,3887.2499465942383,occluded
550,4,113,121,3,1664.553165435791,occluded
551,4,114,125,2,2044.215202331543,occluded
552,4,115,8,3,5036.3609790802,occluded
553,4,118,21,3,3053.0879497528076,occluded
554,4,121,112,1,3461.8771076202393,occluded
555,4,122,75,1,3428.049087524414,occluded
556,4,123,111,2,5267.348051071167,occluded
557,4,126,124,3,2852.4258136749268,occluded
558,4,127,14,3,4257.197856903076,occluded
559,4,129,65,1,3072.878122329712,occluded
560,4,132,5,1,7444.733142852783,occluded
561,4,133,103,1,4947.901010513306,occluded
562,4,139,113,3,3110.1391315460205,occluded
563,4,140,59,2,1975.8360385894775,occluded
564,4,142,136,2,3232.408046722412,occluded
565,4,143,40,3,2015.7818794250488,occluded
566,4,144,9,1,4976.953029632568,occluded
567,4,145,86,2,2064.7449493408203,occluded
568,4,148,31,1,2687.721014022827,occluded
569,4,149,18,2,4594.382047653198,occluded
570,4,154,49,3,1305.5250644683838,occluded
571,4,156,108,3,2221.789836883545,occluded
572,4,158,118,1,4554.013013839722,occluded
573,4,163,148,1,1735.5589866638184,occluded
574,4,166,19,2,2461.977958679199,occluded
575,4,170,24,2,4040.635824203491,occluded
576,4,173,137,3,5702.8069496154785,occluded
577,4,179,1,3,4647.869110107422,occluded
578,4,183,127,3,899.6071815490723,occluded
579,4,186,117,1,2439.3701553344727,occluded
580,4,190,70,3,3180.0780296325684,occluded
581,4,192,60,2,4724.282026290894,occluded
582,4,196,22,3,3046.6089248657227,occluded
583,4,207,92,1,2078.004837036133,occluded
584,4,210,23,1,1784.8401069641113,occluded
585,4,214,38,3,3725.4929542541504,occluded
586,4,215,53,1,1949.173927307129,occluded
587,4,223,131,1,2761.3649368286133,occluded
588,4,254,132,3,4929.451942443848,occluded
589,4,283,45,3,6988.407135009766,occluded
590,4,289,110,1,1993.79301071167,occluded
591,4,297,63,3,3874.5810985565186,occluded
592,4,302,85,2,2160.290002822876,occluded
593,4,306,107,1,3025.970935821533,occluded
594,4,307,71,3,3913.156032562256,occluded
595,4,316,116,3,2520.0300216674805,occluded
596,4,319,44,1,1716.2830829620361,occluded
597,4,326,27,3,3259.913921356201,occluded
598,4,332,99,3,2814.7428035736084,occluded
599,4,380,42,3,3309.041976928711,occluded
600,5,1,61,3,4897.414922714233,occluded
601,5,2,42,3,3133.493185043335,occluded
602,5,3,35,2,1386.1160278320312,occluded
603,5,4,113,3,878.6509037017822,occluded
604,5,5,106,2,2341.0370349884033,occluded
605,5,6,100,1,4795.5591678619385,occluded
606,5,7,40,3,4020.709991455078,occluded
607,5,8,98,1,4185.92095375061,occluded
608,5,9,31,1,4785.8030796051025,occluded
609,5,10,92,1,3459.1870307922363,occluded
610,5,11,34,3,5135.885000228882,occluded
611,5,12,66,3,5609.571933746338,occluded
612,5,13,5,1,3289.5729541778564,occluded
613,5,14,12,1,7521.485090255737,occluded
614,5,15,108,1,1527.2760391235352,occluded
615,5,16,77,2,3394.2928314208984,occluded
616,5,17,104,1,1433.696985244751,occluded
617,5,18,20,2,6981.009006500244,occluded
618,5,19,30,1,1960.4589939117432,occluded
619,5,20,68,1,7667.999982833862,occluded
620,5,21,83,2,673.5818386077881,occluded
621,5,22,1,2,4505.8441162109375,occluded
622,5,23,70,3,3831.0298919677734,occluded
623,5,24,126,3,881.415843963623,occluded
624,5,25,93,2,4184.254169464111,occluded
625,5,26,90,3,843.1880474090576,occluded
626,5,27,102,3,870.1798915863037,occluded
627,5,28,95,2,3478.0378341674805,occluded
628,5,29,89,1,1905.745029449463,occluded
629,5,30,76,2,945.2919960021973,occluded
630,5,31,144,1,1727.931022644043,occluded
631,5,32,2,1,1719.9649810791016,occluded
632,5,33,111,2,729.2349338531494,occluded
633,5,34,127,3,4034.627914428711,occluded
634,5,35,63,1,2319.6568489074707,occluded
635,5,36,74,3,3895.4668045043945,occluded
636,5,37,8,2,5361.854791641235,occluded
637,5,38,59,3,5273.567199707031,occluded
638,5,39,97,1,5373.530864715576,occluded
639,5,40,122,1,2569.5838928222656,occluded
640,5,41,135,3,2758.0490112304688,occluded
641,5,42,150,1,6075.6590366363525,occluded
642,5,43,114,1,2268.7461376190186,occluded
643,5,44,4,2,2704.2510509490967,occluded
644,5,45,80,2,4406.307220458984,occluded
645,5,46,33,2,8825.621128082275,occluded
646,5,47,142,2,8784.552097320557,occluded
647,5,48,49,3,3628.9830207824707,occluded
648,5,49,57,3,4274.364948272705,occluded
649,5,50,71,2,2962.8069400787354,occluded
650,5,51,41,3,6746.692895889282,occluded
651,5,52,22,3,5942.291975021362,occluded
652,5,53,85,2,3025.6969928741455,occluded
653,5,54,131,2,4762.815952301025,occluded
654,5,55,105,2,3025.2771377563477,occluded
655,5,56,16,1,3517.3091888427734,occluded
656,5,57,60,3,803.6890029907227,occluded
657,5,58,146,3,4241.971015930176,occluded
658,5,59,53,3,1798.4819412231445,occluded
659,5,60,64,1,3622.310161590576,occluded
660,5,61,24,3,7189.720153808594,occluded
661,5,62,14,3,5424.871921539307,occluded
662,5,63,118,3,4127.289056777954,occluded
663,5,64,54,2,4405.160188674927,occluded
664,5,65,148,1,4569.588899612427,occluded
665,5,66,44,3,1921.7801094055176,occluded
666,5,67,128,1,721.7791080474854,occluded
667,5,68,48,2,3693.4328079223633,occluded
668,5,69,125,2,895.8840370178223,occluded
669,5,70,3,3,6515.055894851685,occluded
670,5,71,78,1,6713.136196136475,occluded
671,5,72,69,1,2370.281934738159,occluded
672,5,73,116,3,1042.8860187530518,occluded
673,5,74,21,2,5871.601104736328,occluded
674,5,75,82,1,3820.30987739563,occluded
675,5,76,19,1,7335.563898086548,occluded
676,5,77,136,2,2819.2598819732666,occluded
677,5,78,101,3,4471.662998199463,occluded
678,5,79,50,3,996.0000514984131,occluded
679,5,80,117,1,2916.888952255249,occluded
680,5,81,67,3,2629.734992980957,occluded
681,5,82,120,3,6865.340948104858,occluded
682,5,84,37,1,4938.426971435547,occluded
683,5,85,112,1,3211.2090587615967,occluded
684,5,86,88,3,3918.717861175537,occluded
685,5,90,143,3,1635.7040405273438,occluded
686,5,91,45,2,2700.559139251709,occluded
687,5,93,96,2,1046.4060306549072,occluded
688,5,94,140,2,3651.8330574035645,occluded
689,5,97,26,3,3342.83185005188,occluded
690,5,98,36,1,5344.976902008057,occluded
691,5,99,94,1,4892.082929611206,occluded
692,5,100,62,1,5238.387823104858,occluded
693,5,102,23,2,3334.8801136016846,occluded
694,5,103,46,1,2952.014923095703,occluded
695,5,106,103,2,4943.229913711548,occluded
696,5,107,134,1,1545.7978248596191,occluded
697,5,109,124,2,2690.062999725342,occluded
698,5,111,129,1,766.7860984802246,occluded
699,5,112,137,2,6754.928112030029,occluded
700,5,113,51,1,2752.943992614746,occluded
701,5,114,115,2,1593.4710502624512,occluded
702,5,115,7,3,2324.753999710083,occluded
703,5,118,73,3,2814.249038696289,occluded
704,5,121,9,1,3614.341974258423,occluded
705,5,122,11,1,3560.4419708251953,occluded
706,5,123,17,1,6326.374053955078,occluded
707,5,126,130,3,5301.939964294434,occluded
708,5,127,99,1,2943.4900283813477,occluded
709,5,129,109,1,5653.645038604736,occluded
710,5,132,110,2,2383.3250999450684,occluded
711,5,133,87,2,6514.2340660095215,occluded
712,5,139,28,2,5474.335193634033,occluded
713,5,140,47,1,2898.825168609619,occluded
714,5,142,86,2,3688.3339881896973,occluded
715,5,143,107,3,7031.315088272095,occluded
716,5,144,149,1,2764.0058994293213,occluded
717,5,145,6,2,4400.928020477295,occluded
718,5,148,147,1,1253.0181407928467,occluded
719,5,149,27,1,3387.6588344573975,occluded
720,5,154,141,3,796.2839603424072,occluded
721,5,156,18,3,5474.463939666748,occluded
722,5,158,55,3,2373.4731674194336,occluded
723,5,163,123,1,7877.133131027222,occluded
724,5,166,38,2,2851.3379096984863,occluded
725,5,170,10,2,3815.5770301818848,occluded
726,5,173,121,2,2782.0749282836914,occluded
727,5,179,119,3,8743.515968322754,occluded
728,5,183,32,3,1135.2930068969727,occluded
729,5,186,72,1,7479.923963546753,occluded
730,5,190,138,2,7101.4299392700195,occluded
731,5,192,15,1,4224.066972732544,occluded
732,5,196,75,3,7861.166000366211,occluded
733,5,207,39,1,7607.896089553833,occluded
734,5,210,133,1,5447.996139526367,occluded
735,5,214,58,2,4695.58310508728,occluded
736,5,215,145,1,2723.453998565674,occluded
737,5,223,81,3,4095.210075378418,occluded
738,5,254,79,3,5124.220132827759,occluded
739,5,283,139,3,12025.183916091919,occluded
740,5,289,56,2,5273.761987686157,occluded
741,5,297,65,3,4806.818008422852,occluded
742,5,302,132,1,5121.603965759277,occluded
743,5,306,43,1,5813.58003616333,occluded
744,5,307,13,3,4746.270179748535,occluded
745,5,316,25,3,3005.599021911621,occluded
746,5,319,29,1,4328.892946243286,occluded
747,5,326,52,2,3797.930955886841,occluded
748,5,332,84,1,4259.797096252441,occluded
749,5,380,91,3,2957.4928283691406,occluded
750,6,1,118,3,1805.5830001831055,occluded
751,6,2,38,3,3328.7649154663086,occluded
752,6,3,77,2,782.7939987182617,occluded
753,6,4,52,3,1794.5640087127686,occluded
754,6,5,4,2,4163.593053817749,occluded
755,6,6,95,1,2213.4110927581787,occluded
756,6,7,115,2,8284.117937088013,occluded
757,6,8,109,1,2865.3178215026855,occluded
758,6,9,104,1,5589.118957519531,occluded
759,6,10,47,1,1560.1398944854736,occluded
760,6,11,84,2,5431.014060974121,occluded
761,6,12,142,3,4615.5970096588135,occluded
762,6,13,128,2,10402.265071868896,occluded
763,6,14,64,3,6116.836071014404,occluded
764,6,15,146,3,1811.2449645996094,occluded
765,6,16,44,2,2111.6249561309814,occluded
766,6,17,49,1,1167.5069332122803,occluded
767,6,18,92,2,1576.3399600982666,occluded
768,6,19,126,1,1578.1939029693604,occluded
769,6,20,124,1,2646.043062210083,occluded
770,6,21,23,2,847.5499153137207,occluded
771,6,22,127,1,2498.59619140625,occluded
772,6,23,31,2,1740.7691478729248,occluded
773,6,24,46,3,720.566987991333,occluded
774,6,25,72,1,6029.407978057861,occluded
775,6,26,132,3,690.4740333557129,occluded
776,6,27,105,3,1640.6779289245605,occluded
777,6,28,100,2,3077.263832092285,occluded
778,6,29,65,1,1518.1679725646973,occluded
779,6,30,144,2,802.2239208221436,occluded
780,6,31,82,1,1725.142002105713,occluded
781,6,32,137,3,2266.906976699829,occluded
782,6,33,33,2,1511.2688541412354,occluded
783,6,34,129,1,5215.640068054199,occluded
784,6,35,130,3,4305.05108833313,occluded
785,6,36,116,3,1624.9871253967285,occluded
786,6,37,28,1,10945.414066314697,occluded
787,6,38,26,3,3790.987014770508,occluded
788,6,39,122,1,2105.0820350646973,occluded
789,6,40,80,1,1387.7060413360596,occluded
790,6,41,113,3,3704.8580646514893,occluded
791,6,42,98,3,4015.115976333618,occluded
792,6,43,48,1,1389.145851135254,occluded
793,6,44,114,2,3029.102087020874,occluded
794,6,45,17,2,4592.235088348389,occluded
795,6,46,136,2,1815.7191276550293,occluded
796,6,47,150,2,828.7208080291748,occluded
797,6,48,78,1,2350.5911827087402,occluded
798,6,49,6,3,10015.905857086182,occluded
799,6,50,27,2,3399.613857269287,occluded
800,6,51,148,2,518.7199115753174,occluded
801,6,52,68,3,3734.4589233398438,occluded
802,6,53,62,2,2065.924882888794,occluded
803,6,54,45,2,3235.2230548858643,occluded
804,6,55,112,2,3000.1161098480225,occluded
805,6,56,117,2,6684.242010116577,occluded
806,6,57,58,3,1405.8940410614014,occluded
807,6,58,71,1,2655.2069187164307,occluded
808,6,59,24,3,4225.921154022217,occluded
809,6,60,131,2,4275.273084640503,occluded
810,6,61,56,1,5355.795860290527,occluded
811,6,62,88,1,13753.435134887695,occluded
812,6,63,91,3,3194.525957107544,occluded
813,6,64,40,1,2476.2659072875977,occluded
814,6,65,99,1,3576.451063156128,occluded
815,6,66,79,3,1974.1358757019043,occluded
816,6,67,86,1,2484.8039150238037,occluded
817,6,68,25,2,1264.5528316497803,occluded
818,6,69,97,2,575.5050182342529,occluded
819,6,70,133,3,3242.759943008423,occluded
820,6,71,13,2,2822.2639560699463,occluded
821,6,72,69,3,3242.5339221954346,occluded
822,6,73,70,3,732.8040599822998,occluded
823,6,74,32,2,1065.260887145996,occluded
824,6,75,11,1,2056.974172592163,occluded
825,6,76,66,1,4088.697910308838,occluded
826,6,77,108,2,3197.280168533325,occluded
827,6,78,35,2,1586.8339538574219,occluded
828,6,79,43,3,1030.8160781860352,occluded
829,6,80,93,1,2293.095111846924,occluded
830,6,81,57,3,2977.2300720214844,occluded
831,6,82,149,3,4328.190088272095,occluded
832,6,84,90,1,2417.4749851226807,occluded
833,6,85,7,1,3868.9239025115967,occluded
834,6,86,19,3,4038.017988204956,occluded
835,6,90,143,3,1787.7111434936523,occluded
836,6,91,2,2,3915.6651496887207,occluded
837,6,93,14,2,1395.8051204681396,occluded
838,6,94,30,2,3457.2322368621826,occluded
839,6,97,106,3,3915.8859252929688,occluded
840,6,98,101,1,2411.6101264953613,occluded
841,6,99,34,1,7452.461004257202,occluded
842,6,100,59,1,3055.6881427764893,occluded
843,6,102,138,2,1330.3401470184326,occluded
844,6,103,96,2,3918.3509349823,occluded
845,6,106,76,2,3302.588939666748,occluded
846,6,107,60,1,1126.7180442810059,occluded
847,6,109,63,3,6877.509832382202,occluded
848,6,111,42,1,759.8729133605957,occluded
849,6,112,37,2,2667.1359539031982,occluded
850,6,113,10,2,3525.9809494018555,occluded
851,6,114,111,2,3507.277011871338,occluded
852,6,115,15,3,2665.3850078582764,occluded
853,6,118,119,2,3557.3971271514893,occluded
854,6,121,134,1,3499.600887298584,occluded
855,6,122,41,3,4724.318027496338,occluded
856,6,123,140,3,7196.264028549194,occluded
857,6,126,5,3,5339.3309116363525,occluded
858,6,127,20,1,2754.936933517456,occluded
859,6,129,103,1,2667.948007583618,occluded
860,6,132,12,2,6750.385999679565,occluded
861,6,133,107,1,4871.791839599609,occluded
862,6,139,87,2,1200.9620666503906,occluded
863,6,140,135,1,3010.913133621216,occluded
864,6,142,125,2,2328.6819458007812,occluded
865,6,143,50,1,1279.5169353485107,occluded
866,6,144,29,1,6857.746124267578,occluded
867,6,145,1,2,5234.341144561768,occluded
868,6,148,120,1,2532.9089164733887,occluded
869,6,149,21,2,2540.7168865203857,occluded
870,6,154,8,3,2235.8789443969727,occluded
871,6,156,51,3,1795.4590320587158,occluded
872,6,158,53,3,3506.9150924682617,occluded
873,6,163,67,1,3391.5839195251465,occluded
874,6,166,123,2,5753.649950027466,occluded
875,6,170,75,1,2884.603977203369,occluded
876,6,173,73,2,3028.559923171997,occluded
877,6,179,54,3,2954.0281295776367,occluded
878,6,183,3,3,4509.79208946228,occluded
879,6,186,147,1,6115.261077880859,occluded
880,6,190,89,3,5522.233963012695,occluded
881,6,192,81,2,6530.354976654053,occluded
882,6,196,85,3,4594.609022140503,occluded
883,6,207,36,1,4341.136932373047,occluded
884,6,210,141,2,12289.527893066406,occluded
885,6,214,139,2,5159.943103790283,occluded
886,6,215,83,1,9215.353965759277,occluded
887,6,223,145,1,5474.026918411255,occluded
888,6,254,39,3,4999.053001403809,occluded
889,6,283,74,3,3597.3360538482666,occluded
890,6,289,22,2,3770.098924636841,occluded
891,6,297,110,3,7669.515132904053,occluded
892,6,302,18,2,2806.579828262329,occluded
893,6,306,94,1,6158.973932266235,occluded
894,6,307,55,1,7238.070964813232,occluded
895,6,316,102,1,9387.23087310791,occluded
896,6,319,9,1,5772.004842758179,occluded
897,6,326,121,1,7089.773178100586,occluded
898,6,332,16,2,6783.322095870972,occluded
899,6,380,61,3,4776.99613571167,occluded
900,7,1,111,1,1771.2030410766602,occluded
901,7,2,46,3,1080.4917812347412,occluded
902,7,3,143,2,688.774824142456,occluded
903,7,4,55,3,746.0188865661621,occluded
904,7,5,107,2,1497.856855392456,occluded
905,7,6,118,1,1963.4840488433838,occluded
906,7,7,59,3,5111.954927444458,occluded
907,7,8,115,3,2415.5449867248535,occluded
908,7,9,100,1,6756.182909011841,occluded
909,7,10,149,3,1687.8700256347656,occluded
910,7,11,125,3,1931.6291809082031,occluded
911,7,12,57,1,5302.994966506958,occluded
912,7,13,122,1,2105.5521965026855,occluded
913,7,14,139,3,1684.1349601745605,occluded
914,7,15,73,1,1173.7210750579834,occluded
915,7,16,34,2,3131.1450004577637,occluded
916,7,17,11,1,2723.6080169677734,occluded
917,7,18,47,2,1232.3510646820068,occluded
918,7,19,20,1,1045.673131942749,occluded
919,7,20,91,3,2987.673044204712,occluded
920,7,21,77,2,647.6788520812988,occluded
921,7,22,131,3,2709.12504196167,occluded
922,7,23,66,3,4993.072986602783,occluded
923,7,24,147,3,590.7649993896484,occluded
924,7,25,146,1,2296.6699600219727,occluded
925,7,26,14,3,838.5961055755615,occluded
926,7,27,68,3,743.1991100311279,occluded
927,7,28,75,2,3550.262928009033,occluded
928,7,29,97,1,1084.4440460205078,occluded
929,7,30,2,2,1651.2939929962158,occluded
930,7,31,82,1,1900.2900123596191,occluded
931,7,32,62,3,3451.292037963867,occluded
932,7,33,48,2,643.6290740966797,occluded
933,7,34,105,1,3634.948968887329,occluded
934,7,35,35,1,1798.111915588379,occluded
935,7,36,99,3,1414.0939712524414,occluded
936,7,37,36,2,3940.049886703491,occluded
937,7,38,3,3,4802.736043930054,occluded
938,7,39,9,1,1791.024923324585,occluded
939,7,40,90,1,2123.0311393737793,occluded
940,7,41,33,3,2393.005847930908,occluded
941,7,42,145,1,4399.477958679199,occluded
942,7,43,54,1,2573.103904724121,occluded
943,7,44,138,2,3645.9388732910156,occluded
944,7,45,27,2,2715.242862701416,occluded
945,7,46,114,2,2243.5059547424316,occluded
946,7,47,28,3,1994.4159984588623,occluded
947,7,48,113,3,2569.949150085449,occluded
948,7,49,13,3,5419.602870941162,occluded
949,7,50,31,2,3178.8179874420166,occluded
950,7,51,112,1,2731.346845626831,occluded
951,7,52,126,3,1205.3558826446533,occluded
952,7,53,87,2,4760.64395904541,occluded
953,7,54,38,2,2399.1570472717285,occluded
954,7,55,78,2,2862.0879650115967,occluded
955,7,56,84,2,2166.3990020751953,occluded
956,7,57,61,3,755.7120323181152,occluded
957,7,58,21,3,3251.782178878784,occluded
958,7,59,79,3,1101.6719341278076,occluded
959,7,60,53,1,4978.155136108398,occluded
960,7,61,116,1,3011.2791061401367,occluded
961,7,62,22,3,5317.315101623535,occluded
962,7,63,83,1,3357.46693611145,occluded
963,7,64,4,1,3042.2961711883545,occluded
964,7,65,80,1,4375.63681602478,occluded
965,7,66,24,3,2282.9558849334717,occluded
966,7,67,49,1,710.5882167816162,occluded
967,7,68,102,1,2107.745885848999,occluded
968,7,69,63,2,763.3848190307617,occluded
969,7,70,144,3,1755.760908126831,occluded
970,7,71,93,2,3600.0330448150635,occluded
971,7,72,88,1,1371.8218803405762,occluded
972,7,73,72,3,1006.3519477844238,occluded
973,7,74,74,3,1571.1297988891602,occluded
974,7,75,70,1,2336.7209434509277,occluded
975,7,76,137,1,1076.7388343811035,occluded
976,7,77,132,1,3858.135938644409,occluded
977,7,78,150,3,2654.926061630249,occluded
978,7,79,65,3,618.6478137969971,occluded
979,7,80,86,1,1775.7270336151123,occluded
980,7,81,16,3,5437.228202819824,occluded
981,7,82,7,3,4756.091117858887,occluded
982,7,84,5,1,2221.173048019409,occluded
983,7,85,124,2,2987.924098968506,occluded
984,7,86,108,3,2608.682155609131,occluded
985,7,90,92,3,1615.5939102172852,occluded
986,7,91,110,1,1997.6301193237305,occluded
987,7,93,71,2,545.936107635498,occluded
988,7,94,30,2,2083.6408138275146,occluded
989,7,97,39,1,4054.1720390319824,occluded
990,7,98,58,1,3728.1298637390137,occluded
991,7,99,8,3,4900.83909034729,occluded
992,7,100,134,1,4359.698057174683,occluded
993,7,102,76,2,3193.1540966033936,occluded
994,7,103,51,1,4914.757966995239,occluded
995,7,106,6,2,4360.767126083374,occluded
996,7,107,135,2,3023.9250659942627,occluded
997,7,109,119,2,4124.6018409729,occluded
998,7,111,117,1,754.8830509185791,occluded
999,7,112,95,2,4285.110950469971,occluded
1000,7,113,42,3,3939.1369819641113,occluded
1001,7,114,85,2,911.8640422821045,occluded
1002,7,115,50,3,2797.7089881896973,occluded
1003,7,118,109,3,2550.8790016174316,occluded
1004,7,121,64,1,2497.286081314087,occluded
1005,7,122,19,1,3404.6618938446045,occluded
1006,7,123,89,1,2806.1270713806152,occluded
1007,7,126,130,3,1370.048999786377,occluded
1008,7,127,12,1,2527.6358127593994,occluded
1009,7,129,69,1,2630.4619312286377,occluded
1010,7,132,141,1,2614.290952682495,occluded
1011,7,133,45,2,3728.2211780548096,occluded
1012,7,139,142,2,1248.4550476074219,occluded
1013,7,140,60,2,1591.8049812316895,occluded
1014,7,142,41,2,2298.398017883301,occluded
1015,7,143,101,1,2630.8929920196533,occluded
1016,7,144,106,1,3799.8390197753906,occluded
1017,7,145,67,2,2195.533037185669,occluded
1018,7,148,23,1,2141.903877258301,occluded
1019,7,149,128,2,4124.835968017578,occluded
1020,7,154,129,3,807.9700469970703,occluded
1021,7,156,104,3,1797.7759838104248,occluded
1022,7,158,44,1,3965.9531116485596,occluded
1023,7,163,103,1,1475.9228229522705,occluded
1024,7,166,17,2,3699.1450786590576,occluded
1025,7,170,127,3,2939.1701221466064,occluded
1026,7,173,133,1,4999.437093734741,occluded
1027,7,179,32,1,4133.846044540405,occluded
1028,7,183,26,3,1025.83909034729,occluded
1029,7,186,18,2,3263.6771202087402,occluded
1030,7,190,15,2,7853.492021560669,occluded
1031,7,192,1,2,6870.059013366699,occluded
1032,7,196,136,3,3165.1530265808105,occluded
1033,7,207,123,1,1697.854995727539,occluded
1034,7,210,25,1,2064.8789405822754,occluded
1035,7,214,121,3,3247.65682220459,occluded
1036,7,215,81,2,580.3089141845703,occluded
1037,7,223,37,1,2477.102041244507,occluded
1038,7,254,43,3,3833.2290649414062,occluded
1039,7,283,29,3,2570.272922515869,occluded
1040,7,289,98,1,1200.6289958953857,occluded
1041,7,297,120,3,3971.798896789551,occluded
1042,7,302,140,3,3718.1079387664795,occluded
1043,7,306,94,1,2667.9821014404297,occluded
1044,7,307,56,1,1514.868974685669,occluded
1045,7,316,148,3,1199.847936630249,occluded
1046,7,319,40,1,3014.1799449920654,occluded
1047,7,326,96,3,2570.6419944763184,occluded
1048,7,332,52,3,3960.577964782715,occluded
1049,7,380,10,3,1700.078010559082,occluded
1050,8,1,88,1,792.4180030822754,occluded
1051,8,2,56,3,4040.343999862671,occluded
1052,8,3,89,2,983.2549095153809,occluded
1053,8,4,126,3,1016.3381099700928,occluded
1054,8,5,9,1,3035.1579189300537,occluded
1055,8,6,68,2,7671.849966049194,occluded
1056,8,7,110,3,7205.909967422485,occluded
1057,8,8,103,1,841.4061069488525,occluded
1058,8,9,97,3,3939.0017986297607,occluded
1059,8,10,104,1,1770.6029415130615,occluded
1060,8,11,49,3,4341.101884841919,occluded
1061,8,12,134,1,2223.119020462036,occluded
1062,8,13,106,1,1540.3730869293213,occluded
1063,8,14,11,3,9330.907106399536,occluded
1064,8,15,80,3,2959.6898555755615,occluded
1065,8,16,79,2,1606.1639785766602,occluded
1066,8,17,26,1,1953.7990093231201,occluded
1067,8,18,93,3,4272.3729610443115,occluded
1068,8,19,131,1,4759.9499225616455,occluded
1069,8,20,1,2,5123.816013336182,occluded
1070,8,21,116,2,817.3480033874512,occluded
1071,8,22,125,2,2349.4441509246826,occluded
1072,8,23,14,2,1792.572021484375,occluded
1073,8,24,115,3,1905.2419662475586,occluded
1074,8,25,57,2,3997.5709915161133,occluded
1075,8,26,17,2,1889.920949935913,occluded
1076,8,27,31,3,948.7180709838867,occluded
1077,8,28,44,1,1170.9198951721191,occluded
1078,8,29,132,1,2154.8068523406982,occluded
1079,8,30,117,2,1127.8231143951416,occluded
1080,8,31,105,1,1144.3450450897217,occluded
1081,8,32,98,1,1622.9629516601562,occluded
1082,8,33,53,2,989.8359775543213,occluded
1083,8,34,13,3,4193.766117095947,occluded
1084,8,35,15,1,2007.7459812164307,occluded
1085,8,36,96,3,1182.582139968872,occluded
1086,8,37,69,1,2348.6170768737793,occluded
1087,8,38,145,3,4874.212026596069,occluded
1088,8,39,150,1,910.8140468597412,occluded
1089,8,40,61,1,2493.2329654693604,occluded
1090,8,41,63,3,3252.908945083618,occluded
1091,8,42,30,3,3411.100149154663,occluded
1092,8,43,41,1,8475.903987884521,occluded
1093,8,44,119,2,1139.6379470825195,occluded
1094,8,45,142,2,5220.244884490967,occluded
1095,8,46,50,2,6291.301012039185,occluded
1096,8,47,120,3,3055.1929473876953,occluded
1097,8,48,127,3,3734.5099449157715,occluded
1098,8,49,118,2,1469.0499305725098,occluded
1099,8,50,21,3,2902.5328159332275,occluded
1100,8,51,112,3,1362.2009754180908,occluded
1101,8,52,102,3,1680.4108619689941,occluded
1102,8,53,82,2,1629.469871520996,occluded
1103,8,54,130,2,1718.7719345092773,occluded
1104,8,55,75,2,3212.963104248047,occluded
1105,8,56,107,2,4761.3348960876465,occluded
1106,8,57,20,3,1981.8329811096191,occluded
1107,8,58,47,3,1685.1119995117188,occluded
1108,8,59,86,3,1664.9589538574219,occluded
1109,8,60,25,2,2581.9969177246094,occluded
1110,8,61,24,1,5673.230886459351,occluded
1111,8,62,109,2,3801.7120361328125,occluded
1112,8,63,146,1,1528.2509326934814,occluded
1113,8,64,34,1,1698.646068572998,occluded
1114,8,65,100,3,4264.835834503174,occluded
1115,8,66,149,3,2793.7231063842773,occluded
1116,8,67,111,1,611.1710071563721,occluded
1117,8,68,141,2,1528.8090705871582,occluded
1118,8,69,121,2,734.4009876251221,occluded
1119,8,70,95,3,1371.2749481201172,occluded
1120,8,71,136,2,1325.639009475708,occluded
1121,8,72,32,1,2299.083948135376,occluded
1122,8,73,101,3,1215.2040004730225,occluded
1123,8,74,92,2,1358.320951461792,occluded
1124,8,75,72,3,3706.357002258301,occluded
1125,8,76,70,3,3347.440004348755,occluded
1126,8,77,38,2,3611.9120121002197,occluded
1127,8,78,91,2,2385.455846786499,occluded
1128,8,79,10,3,2806.997060775757,occluded
1129,8,80,39,3,2112.6370429992676,occluded
1130,8,81,74,3,1995.40114402771,occluded
1131,8,82,122,2,2122.02787399292,occluded
1132,8,84,66,1,2960.8819484710693,occluded
1133,8,85,124,1,4320.42384147644,occluded
1134,8,86,29,2,1855.61203956604,occluded
1135,8,90,3,1,12979.1579246521,occluded
1136,8,91,143,2,2009.4709396362305,occluded
1137,8,93,46,2,1006.9229602813721,occluded
1138,8,94,148,2,1329.4000625610352,occluded
1139,8,97,6,3,2183.911085128784,occluded
1140,8,98,138,2,6771.251916885376,occluded
1141,8,99,73,1,2650.5000591278076,occluded
1142,8,100,85,1,4568.028926849365,occluded
1143,8,102,87,2,1357.4249744415283,occluded
1144,8,103,84,1,8028.679132461548,occluded
1145,8,106,22,2,2494.6460723876953,occluded
1146,8,107,90,1,2643.6409950256348,occluded
1147,8,109,12,2,2858.2260608673096,occluded
1148,8,111,67,1,1011.5149021148682,occluded
1149,8,112,51,2,2619.46702003479,occluded
1150,8,113,83,3,1493.7078952789307,occluded
1151,8,114,45,1,2456.663131713867,occluded
1152,8,115,5,3,4505.850076675415,occluded
1153,8,118,64,2,3042.349100112915,occluded
1154,8,121,55,2,1428.879976272583,occluded
1155,8,122,71,1,1997.3769187927246,occluded
1156,8,123,76,1,2220.327138900757,occluded
1157,8,126,19,1,4539.792060852051,occluded
1158,8,127,78,3,2947.9079246520996,occluded
1159,8,129,40,1,1418.9770221710205,occluded
1160,8,132,52,1,7908.344030380249,occluded
1161,8,133,135,2,5458.387136459351,occluded
1162,8,139,58,2,2343.6779975891113,occluded
1163,8,140,128,2,1684.1208934783936,occluded
1164,8,142,23,3,1556.19215965271,occluded
1165,8,143,147,1,1296.9529628753662,occluded
1166,8,144,7,1,5356.905937194824,occluded
1167,8,145,108,2,2257.997989654541,occluded
1168,8,148,137,1,1186.8870258331299,occluded
1169,8,149,99,3,1982.4409484863281,occluded
1170,8,154,8,3,1662.6410484313965,occluded
1171,8,156,42,3,1001.0788440704346,occluded
1172,8,158,129,3,6844.214916229248,occluded
1173,8,163,114,2,1640.800952911377,occluded
1174,8,166,27,2,3394.0589427948,occluded
1175,8,170,18,2,2862.3080253601074,occluded
1176,8,173,4,2,3038.100004196167,occluded
1177,8,179,37,1,4509.450912475586,occluded
1178,8,183,139,3,1162.4929904937744,occluded
1179,8,186,16,2,1958.2500457763672,occluded
1180,8,190,62,3,1751.9772052764893,occluded
1181,8,192,33,2,3364.1958236694336,occluded
1182,8,196,43,3,4233.664035797119,occluded
1183,8,207,77,2,4106.593132019043,occluded
1184,8,210,81,1,4319.566011428833,occluded
1185,8,214,123,3,4874.000072479248,occluded
1186,8,215,54,1,1501.5449523925781,occluded
1187,8,223,144,2,6029.442071914673,occluded
1188,8,254,94,3,3647.6941108703613,occluded
1189,8,283,2,2,4317.183971405029,occluded
1190,8,289,59,1,1922.9049682617188,occluded
1191,8,297,133,1,4503.813982009888,occluded
1192,8,302,28,2,1326.8170356750488,occluded
1193,8,306,140,1,1229.0589809417725,occluded
1194,8,307,36,1,2328.1960487365723,occluded
1195,8,316,113,3,2362.5099658966064,occluded
1196,8,319,65,2,1539.0520095825195,occluded
1197,8,326,60,3,1931.2951564788818,occluded
1198,8,332,48,3,2617.9769039154053,occluded
1199,8,380,35,3,6196.081876754761,occluded
1200,9,1,83,3,2318.8109397888184,occluded
1201,9,2,103,3,3757.024049758911,occluded
1202,9,3,40,1,8058.557987213135,occluded
1203,9,4,95,3,631.6370964050293,occluded
1204,9,5,76,2,2854.090929031372,occluded
1205,9,6,117,1,3737.1459007263184,occluded
1206,9,7,134,3,2761.2829208374023,occluded
1207,9,8,100,1,1571.4869499206543,occluded
1208,9,9,113,1,2711.5561962127686,occluded
1209,9,10,46,3,4206.543922424316,occluded
1210,9,11,143,3,2762.5458240509033,occluded
1211,9,12,99,3,2671.341896057129,occluded
1212,9,13,60,2,4977.50186920166,occluded
1213,9,14,91,3,2233.3290576934814,occluded
1214,9,15,122,3,2282.8269004821777,occluded
1215,9,16,141,2,1320.7411766052246,occluded
1216,9,17,42,1,2168.4582233428955,occluded
1217,9,18,90,2,3701.530933380127,occluded
1218,9,19,55,1,785.6309413909912,occluded
1219,9,20,61,1,3303.5781383514404,occluded
1220,9,21,135,2,562.5090599060059,occluded
1221,9,22,14,2,4713.106870651245,occluded
1222,9,23,13,2,4013.788938522339,occluded
1223,9,24,86,3,1331.0627937316895,occluded
1224,9,25,59,2,2832.0178985595703,occluded
1225,9,26,50,3,2099.431037902832,occluded
1226,9,27,119,3,604.5060157775879,occluded
1227,9,28,20,1,1751.2450218200684,occluded
1228,9,29,63,1,1123.0010986328125,occluded
1229,9,30,146,2,533.2200527191162,occluded
1230,9,31,74,1,2709.851026535034,occluded
1231,9,32,16,3,9698.312997817993,occluded
1232,9,33,56,2,830.8751583099365,occluded
1233,9,34,31,1,4069.3578720092773,occluded
1234,9,35,78,1,2608.3598136901855,occluded
1235,9,36,22,3,4317.171812057495,occluded
1236,9,37,19,1,10950.74987411499,occluded
1237,9,38,21,3,3639.6310329437256,occluded
1238,9,39,48,1,6732.077836990356,occluded
1239,9,40,108,1,4099.493980407715,occluded
1240,9,41,44,3,2245.7611560821533,occluded
1241,9,42,129,1,5655.7111740112305,occluded
1242,9,43,98,1,1978.2910346984863,occluded
1243,9,44,130,2,3417.9179668426514,occluded
1244,9,45,65,1,8095.881938934326,occluded
1245,9,46,112,2,1528.2649993896484,occluded
1246,9,47,106,3,2834.5611095428467,occluded
1247,9,48,23,3,9130.978107452393,occluded
1248,9,49,47,2,6341.542959213257,occluded
1249,9,50,8,2,4669.079065322876,occluded
1250,9,51,11,1,4946.075201034546,occluded
1251,9,52,94,3,2473.7019538879395,occluded
1252,9,53,57,2,5455.874919891357,occluded
1253,9,54,41,2,4694.64111328125,occluded
1254,9,55,24,3,7429.255962371826,occluded
1255,9,56,9,2,5478.296995162964,occluded
1256,9,57,131,3,768.8121795654297,occluded
1257,9,58,89,3,2026.9289016723633,occluded
1258,9,59,49,1,3052.922010421753,occluded
1259,9,60,132,2,9569.983959197998,occluded
1260,9,61,111,3,2859.257936477661,occluded
1261,9,62,17,3,6756.440877914429,occluded
1262,9,63,27,3,3769.7699069976807,occluded
1263,9,64,68,2,4618.2708740234375,occluded
1264,9,65,62,1,2006.300926208496,occluded
1265,9,66,18,3,4915.818929672241,occluded
1266,9,67,32,1,2487.0898723602295,occluded
1267,9,68,116,2,1432.1649074554443,occluded
1268,9,69,38,2,19179.34012413025,occluded
1269,9,70,35,3,4017.620086669922,occluded
1270,9,71,12,2,3300.032138824463,occluded
1271,9,72,133,1,1322.7059841156006,occluded
1272,9,73,145,3,622.2209930419922,occluded
1273,9,74,58,2,2370.3668117523193,occluded
1274,9,75,96,1,2314.1679763793945,occluded
1275,9,76,138,1,1928.966999053955,occluded
1276,9,77,3,2,4272.0091342926025,occluded
1277,9,78,51,2,3949.3820667266846,occluded
1278,9,79,85,3,671.0731983184814,occluded
1279,9,80,97,1,2871.291160583496,occluded
1280,9,81,124,3,4384.768962860107,occluded
1281,9,82,87,3,2321.474075317383,occluded
1282,9,84,73,1,6594.023942947388,occluded
1283,9,85,71,1,3569.140911102295,occluded
1284,9,86,67,3,3522.388219833374,occluded
1285,9,90,1,3,10221.138954162598,occluded
1286,9,91,114,2,6463.670969009399,occluded
1287,9,93,82,2,3788.444995880127,occluded
1288,9,94,15,2,4138.58699798584,occluded
1289,9,97,34,1,7936.065196990967,occluded
1290,9,98,93,3,2196.7098712921143,occluded
1291,9,99,6,3,8971.120834350586,occluded
1292,9,100,45,3,9138.736009597778,occluded
1293,9,102,109,2,1605.1321029663086,occluded
1294,9,103,30,3,13978.198051452637,occluded
1295,9,106,110,3,10762.598991394043,occluded
1296,9,107,43,1,1128.188133239746,occluded
1297,9,109,147,3,3493.662118911743,occluded
1298,9,111,53,1,870.4578876495361,occluded
1299,9,112,144,3,3220.3991413116455,occluded
1300,9,113,80,2,7218.212127685547,occluded
1301,9,114,84,2,1466.0520553588867,occluded
1302,9,115,118,3,3983.1221103668213,occluded
1303,9,118,136,3,5604.855060577393,occluded
1304,9,121,25,2,3448.138952255249,occluded
1305,9,122,102,1,1527.7950763702393,occluded
1306,9,123,39,1,4065.614938735962,occluded
1307,9,126,107,3,1610.826015472412,occluded
1308,9,127,104,1,2156.148910522461,occluded
1309,9,129,137,1,5742.512941360474,occluded
1310,9,132,26,2,4924.660205841064,occluded
1311,9,133,69,1,5063.431978225708,occluded
1312,9,139,7,2,4760.148048400879,occluded
1313,9,140,70,1,606.8108081817627,occluded
1314,9,142,4,2,4461.090087890625,occluded
1315,9,143,64,3,4801.862001419067,occluded
1316,9,144,149,1,2962.01491355896,occluded
1317,9,145,37,2,3959.127902984619,occluded
1318,9,148,66,1,2635.442018508911,occluded
1319,9,149,115,2,2941.5841102600098,occluded
1320,9,154,140,3,592.1659469604492,occluded
1321,9,156,10,3,9476.999044418335,occluded
1322,9,158,28,1,18180.71413040161,occluded
1323,9,163,33,1,5553.972959518433,occluded
1324,9,166,142,2,4079.1420936584473,occluded
1325,9,170,79,2,3466.549873352051,occluded
1326,9,173,36,2,4508.5248947143555,occluded
1327,9,179,121,3,4115.484952926636,occluded
1328,9,183,128,3,665.0311946868896,occluded
1329,9,186,139,1,2226.402997970581,occluded
1330,9,190,105,2,3515.104055404663,occluded
1331,9,192,125,1,3160.7658863067627,occluded
1332,9,196,72,3,2625.5640983581543,occluded
1333,9,207,54,1,3797.356128692627,occluded
1334,9,210,120,1,4574.933052062988,occluded
1335,9,214,127,1,12421.180963516235,occluded
1336,9,215,52,1,4411.387920379639,occluded
1337,9,223,77,1,5934.6208572387695,occluded
1338,9,254,88,1,5008.923053741455,occluded
1339,9,283,5,1,14458.873987197876,occluded
1340,9,289,92,2,2280.935049057007,occluded
1341,9,297,126,1,5187.731027603149,occluded
1342,9,302,123,1,8463.370084762573,occluded
1343,9,306,148,3,4810.482978820801,occluded
1344,9,307,29,3,11696.610927581787,occluded
1345,9,316,150,3,3290.5077934265137,occluded
1346,9,319,101,1,1833.301067352295,occluded
1347,9,326,81,2,2670.478105545044,occluded
1348,9,332,75,2,4971.757888793945,occluded
1349,9,380,2,3,6875.282049179077,occluded
1350,10,1,57,3,3579.2391300201416,occluded
1351,10,2,14,3,2113.6999130249023,occluded
1352,10,3,49,2,1418.2100296020508,occluded
1353,10,4,71,3,913.538932800293,occluded
1354,10,5,81,2,3549.546003341675,occluded
1355,10,6,75,1,2293.755054473877,occluded
1356,10,7,74,3,4093.0631160736084,occluded
1357,10,8,51,1,2886.8720531463623,occluded
1358,10,9,13,1,2079.258918762207,occluded
1359,10,10,42,3,2102.743148803711,occluded
1360,10,11,11,3,3974.760055541992,occluded
1361,10,12,67,1,2331.066131591797,occluded
1362,10,13,7,1,2208.292007446289,occluded
1363,10,14,93,3,1715.7800197601318,occluded
1364,10,15,46,2,3306.439161300659,occluded
1365,10,16,121,2,1189.1331672668457,occluded
1366,10,17,119,1,1588.6468887329102,occluded
1367,10,18,40,1,2882.6611042022705,occluded
1368,10,19,89,1,903.6309719085693,occluded
1369,10,20,38,3,6756.858110427856,occluded
1370,10,21,124,2,788.8500690460205,occluded
1371,10,22,27,2,1666.9650077819824,occluded
1372,10,23,140,2,5218.261957168579,occluded
1373,10,24,98,3,864.6440505981445,occluded
1374,10,25,79,2,2589.794158935547,occluded
1375,10,26,56,3,1008.7580680847168,occluded
1376,10,27,43,3,1020.9197998046875,occluded
1377,10,28,10,1,1793.454885482788,occluded
1378,10,29,95,1,1459.6312046051025,occluded
1379,10,30,82,2,1160.7398986816406,occluded
1380,10,31,100,1,2439.563035964966,occluded
1381,10,32,33,3,5743.018865585327,occluded
1382,10,33,96,2,842.7660465240479,occluded
1383,10,34,6,3,5145.051002502441,occluded
1384,10,35,23,3,2266.2370204925537,occluded
1385,10,36,28,3,2547.569990158081,occluded
1386,10,37,125,2,5900.497913360596,occluded
1387,10,38,2,3,2517.1568393707275,occluded
1388,10,39,150,1,4576.312065124512,occluded
1389,10,40,112,1,1657.79709815979,occluded
1390,10,41,80,3,2446.514129638672,occluded
1391,10,42,21,1,2104.733943939209,occluded
1392,10,43,90,1,1965.4920101165771,occluded
1393,10,44,88,2,3283.928871154785,occluded
1394,10,45,94,1,4958.930969238281,occluded
1395,10,46,137,1,3966.5467739105225,occluded
1396,10,47,60,2,1702.7208805084229,occluded
1397,10,48,58,3,2414.2959117889404,occluded
1398,10,49,64,3,3965.801000595093,occluded
1399,10,50,34,2,3894.543170928955,occluded
1400,10,51,102,1,5228.55806350708,occluded
1401,10,52,144,3,2037.877082824707,occluded
1402,10,53,73,2,2236.091136932373,occluded
1403,10,54,31,2,1953.145980834961,occluded
1404,10,55,134,2,1540.6959056854248,occluded
1405,10,56,25,2,4046.941041946411,occluded
1406,10,57,109,3,903.1939506530762,occluded
1407,10,58,18,3,3642.8709030151367,occluded
1408,10,59,15,3,3848.6740589141846,occluded
1409,10,60,3,2,2355.865955352783,occluded
1410,10,61,99,1,2352.5099754333496,occluded
1411,10,62,129,3,1902.730941772461,occluded
1412,10,63,122,2,4394.538879394531,occluded
1413,10,64,1,2,4121.150970458984,occluded
1414,10,65,104,1,2473.3529090881348,occluded
1415,10,66,39,3,3187.408924102783,occluded
1416,10,67,145,1,697.613000869751,occluded
1417,10,68,70,2,1196.6547966003418,occluded
1418,10,69,86,2,833.0230712890625,occluded
1419,10,70,133,3,1889.4898891448975,occluded
1420,10,71,130,2,2901.566982269287,occluded
1421,10,72,59,1,2130.5370330810547,occluded
1422,10,73,69,3,939.6531581878662,occluded
1423,10,74,115,3,3639.191150665283,occluded
1424,10,75,106,1,2541.7959690093994,occluded
1425,10,76,78,1,3187.814950942993,occluded
1426,10,77,17,2,3434.434175491333,occluded
1427,10,78,44,2,5776.806831359863,occluded
1428,10,79,19,3,1244.5578575134277,occluded
1429,10,80,127,1,1794.5010662078857,occluded
1430,10,81,143,3,4463.963031768799,occluded
1431,10,82,92,3,4860.218048095703,occluded
1432,10,84,128,1,2387.0489597320557,occluded
1433,10,85,32,2,1863.447904586792,occluded
1434,10,86,36,3,4266.742944717407,occluded
1435,10,90,8,3,3056.6232204437256,occluded
1436,10,91,62,2,2019.700050354004,occluded
1437,10,93,66,2,1083.083152770996,occluded
1438,10,94,50,2,3549.980878829956,occluded
1439,10,97,139,1,1436.4020824432373,occluded
1440,10,98,54,1,2255.237102508545,occluded
1441,10,99,103,3,5176.64098739624,occluded
1442,10,100,132,3,3329.500913619995,occluded
1443,10,102,52,2,1130.944013595581,occluded
1444,10,103,149,1,4133.9099407196045,occluded
1445,10,106,41,2,2355.372190475464,occluded
1446,10,107,97,1,2381.491184234619,occluded
1447,10,109,107,2,2769.8299884796143,occluded
1448,10,111,120,1,715.5261039733887,occluded
1449,10,112,108,3,3891.2270069122314,occluded
1450,10,113,16,1,3735.243082046509,occluded
1451,10,114,29,2,3493.744134902954,occluded
1452,10,115,131,3,2360.9139919281006,occluded
1453,10,118,110,2,2272.9110717773438,occluded
1454,10,121,136,1,4203.636884689331,occluded
1455,10,122,142,3,4209.216833114624,occluded
1456,10,123,5,1,3297.175884246826,occluded
1457,10,126,24,3,2449.2640495300293,occluded
1458,10,127,116,1,2006.700038909912,occluded
1459,10,129,113,1,2568.5529708862305,occluded
1460,10,132,45,1,3023.128032684326,occluded
1461,10,133,118,2,5478.802919387817,occluded
1462,10,139,76,2,1313.143014907837,occluded
1463,10,140,53,2,2149.9040126800537,occluded
1464,10,142,126,2,1486.3910675048828,occluded
1465,10,143,146,1,2954.292058944702,occluded
1466,10,144,105,1,5019.214868545532,occluded
1467,10,145,91,2,1626.352071762085,occluded
1468,10,148,65,1,1986.9670867919922,occluded
1469,10,149,83,2,4659.116983413696,occluded
1470,10,154,111,3,991.5001392364502,occluded
1471,10,156,20,3,2982.125997543335,occluded
1472,10,158,68,1,4859.39884185791,occluded
1473,10,163,117,1,2420.32790184021,occluded
1474,10,166,48,2,1698.7669467926025,occluded
1475,10,170,87,2,2619.101047515869,occluded
1476,10,173,85,2,2837.3730182647705,occluded
1477,10,179,135,1,7415.778160095215,occluded
1478,10,183,84,3,854.9509048461914,occluded
1479,10,186,101,1,2499.401092529297,occluded
1480,10,190,26,3,4655.469179153442,occluded
1481,10,192,141,1,5527.076005935669,occluded
1482,10,196,4,3,3666.1758422851562,occluded
1483,10,207,12,2,2175.018072128296,occluded
1484,10,210,55,1,2026.7298221588135,occluded
1485,10,214,30,3,5840.04807472229,occluded
1486,10,215,47,1,2836.1868858337402,occluded
1487,10,223,9,1,2858.2279682159424,occluded
1488,10,254,61,1,2018.4500217437744,occluded
1489,10,283,35,3,5084.551095962524,occluded
1490,10,289,22,2,6805.883169174194,occluded
1491,10,297,63,3,3394.9010372161865,occluded
1492,10,302,77,2,2096.6129302978516,occluded
1493,10,306,123,1,2646.2631225585938,occluded
1494,10,307,148,1,2441.3669109344482,occluded
1495,10,316,147,3,1982.3520183563232,occluded
1496,10,319,138,1,2534.766912460327,occluded
1497,10,326,114,3,4888.484954833984,occluded
1498,10,332,72,3,3080.821990966797,occluded
1499,10,380,37,3,3674.595832824707,occluded
1500,11,1,101,1,1275.0380039215088,occluded
1501,11,2,85,1,1682.771921157837,occluded
1502,11,3,105,2,554.8479557037354,occluded
1503,11,4,35,3,689.7521018981934,occluded
1504,11,5,144,1,1014.8899555206299,occluded
1505,11,6,65,1,982.4550151824951,occluded
1506,11,7,13,3,2845.43514251709,occluded
1507,11,8,60,2,1080.6570053100586,occluded
1508,11,9,47,3,915.3988361358643,occluded
1509,11,10,73,2,1121.6208934783936,occluded
1510,11,11,46,3,1202.3429870605469,occluded
1511,11,12,9,3,1540.653944015503,occluded
1512,11,13,131,1,1226.5739440917969,occluded
1513,11,14,83,3,1002.8519630432129,occluded
1514,11,15,30,3,1461.3227844238281,occluded
1515,11,16,66,2,2676.8360137939453,occluded
1516,11,17,115,1,812.9849433898926,occluded
1517,11,18,114,3,1064.4121170043945,occluded
1518,11,19,122,1,792.107105255127,occluded
1519,11,20,79,3,850.3410816192627,occluded
1520,11,21,23,2,1520.7009315490723,occluded
1521,11,22,137,3,1048.1929779052734,occluded
1522,11,23,44,2,1496.812105178833,occluded
1523,11,24,108,3,1045.9918975830078,occluded
1524,11,25,109,1,881.8628787994385,occluded
1525,11,26,55,3,1844.0179824829102,occluded
1526,11,27,37,3,1015.1000022888184,occluded
1527,11,28,118,1,567.5621032714844,occluded
1528,11,29,56,1,1313.6639595031738,occluded
1529,11,30,28,2,876.1429786682129,occluded
1530,11,31,67,1,1448.8310813903809,occluded
1531,11,32,57,1,1202.566146850586,occluded
1532,11,33,61,2,1086.8911743164062,occluded
1533,11,34,128,1,3190.296173095703,occluded
1534,11,35,150,2,1208.6811065673828,occluded
1535,11,36,98,3,1304.6371936798096,occluded
1536,11,37,1,2,3469.1219329833984,occluded
1537,11,38,6,3,6746.345043182373,occluded
1538,11,39,147,1,938.7431144714355,occluded
1539,11,40,107,1,1140.7980918884277,occluded
1540,11,41,124,3,1320.6307888031006,occluded
1541,11,42,130,1,1235.929012298584,occluded
1542,11,43,143,1,554.6388626098633,occluded
1543,11,44,32,2,1129.9841403961182,occluded
1544,11,45,94,2,1543.5810089111328,occluded
1545,11,46,97,1,1064.337968826294,occluded
1546,11,47,86,2,847.0749855041504,occluded
1547,11,48,42,2,951.0838985443115,occluded
1548,11,49,99,3,2624.5808601379395,occluded
1549,11,50,125,1,1009.9821090698242,occluded
1550,11,51,133,3,1156.4180850982666,occluded
1551,11,52,126,3,3417.4559116363525,occluded
1552,11,53,41,2,737.2591495513916,occluded
1553,11,54,10,2,1534.2121124267578,occluded
1554,11,55,64,2,818.6640739440918,occluded
1555,11,56,110,1,634.6771717071533,occluded
1556,11,57,25,3,886.7690563201904,occluded
1557,11,58,38,3,732.9092025756836,occluded
1558,11,59,95,3,1458.165168762207,occluded
1559,11,60,29,1,730.057954788208,occluded
1560,11,61,116,1,647.6650238037109,occluded
1561,11,62,59,3,1856.5850257873535,occluded
1562,11,63,43,1,2541.5310859680176,occluded
1563,11,64,134,1,663.5639667510986,occluded
1564,11,65,140,3,932.2679042816162,occluded
1565,11,66,96,2,1939.1028881072998,occluded
1566,11,67,12,1,1276.5769958496094,occluded
1567,11,68,34,2,1230.7021617889404,occluded
1568,11,69,31,2,636.1398696899414,occluded
1569,11,70,15,3,3449.753999710083,occluded
1570,11,71,84,3,2107.914924621582,occluded
1571,11,72,104,1,885.1640224456787,occluded
1572,11,73,142,3,735.7299327850342,occluded
1573,11,74,100,3,1315.0250911712646,occluded
1574,11,75,54,3,2030.6131839752197,occluded
1575,11,76,76,3,2165.2450561523438,occluded
1576,11,77,132,1,3057.932138442993,occluded
1577,11,78,49,1,1215.6648635864258,occluded
1578,11,79,74,3,2034.8398685455322,occluded
1579,11,80,14,3,1471.9879627227783,occluded
1580,11,81,136,3,2877.5570392608643,occluded
1581,11,82,7,3,3389.1680240631104,occluded
1582,11,84,129,2,924.5109558105469,occluded
1583,11,85,119,2,1713.120937347412,occluded
1584,11,86,27,2,779.6359062194824,occluded
1585,11,90,3,3,5678.392171859741,occluded
1586,11,91,78,2,1526.5460014343262,occluded
1587,11,93,81,2,664.1700267791748,occluded
1588,11,94,139,2,1333.9200019836426,occluded
1589,11,97,39,2,997.2000122070312,occluded
1590,11,98,72,3,1809.8440170288086,occluded
1591,11,99,20,1,1720.3431129455566,occluded
1592,11,100,63,1,790.7710075378418,occluded
1593,11,102,69,2,717.242956161499,occluded
1594,11,103,145,1,2000.6048679351807,occluded
1595,11,106,80,2,686.0930919647217,occluded
1596,11,107,36,1,548.0470657348633,occluded
1597,11,109,48,2,1496.999979019165,occluded
1598,11,111,21,1,686.3930225372314,occluded
1599,11,112,146,2,968.127965927124,occluded
1600,11,113,123,2,1262.389898300171,occluded
1601,11,114,117,1,547.2168922424316,occluded
1602,11,115,16,2,1306.6999912261963,occluded
1603,11,118,111,1,666.3520336151123,occluded
1604,11,121,149,2,1145.0600624084473,occluded
1605,11,122,113,1,1673.328161239624,occluded
1606,11,123,121,2,948.9049911499023,occluded
1607,11,126,40,3,1001.5580654144287,occluded
1608,11,127,50,3,3675.507068634033,occluded
1609,11,129,82,1,636.2929344177246,occluded
1610,11,132,112,2,1637.2251510620117,occluded
1611,11,133,90,2,1225.1429557800293,occluded
1612,11,139,148,2,867.7990436553955,occluded
1613,11,140,18,1,1453.9051055908203,occluded
1614,11,142,127,3,1321.8729496002197,occluded
1615,11,143,87,1,2594.5169925689697,occluded
1616,11,144,17,1,842.0560359954834,occluded
1617,11,145,53,2,721.480131149292,occluded
1618,11,148,11,1,1170.8829402923584,occluded
1619,11,149,22,1,1666.705846786499,occluded
1620,11,154,75,3,600.255012512207,occluded
1621,11,156,24,3,1561.7690086364746,occluded
1622,11,158,88,1,763.8380527496338,occluded
1623,11,163,93,1,3940.632104873657,occluded
1624,11,166,52,2,4123.708963394165,occluded
1625,11,170,102,2,1144.3769931793213,occluded
1626,11,173,5,2,1377.500057220459,occluded
1627,11,179,70,1,1081.3679695129395,occluded
1628,11,183,141,3,547.7049350738525,occluded
1629,11,186,68,2,658.4970951080322,occluded
1630,11,190,2,3,2039.2658710479736,occluded
1631,11,192,89,1,1066.8509006500244,occluded
1632,11,196,19,2,852.0698547363281,occluded
1633,11,207,135,1,1675.9419441223145,occluded
1634,11,210,71,2,834.1500759124756,occluded
1635,11,214,45,3,1386.2669467926025,occluded
1636,11,215,92,1,3049.5128631591797,occluded
1637,11,223,26,1,2037.9221439361572,occluded
1638,11,254,103,1,821.174144744873,occluded
1639,11,283,4,3,3121.613025665283,occluded
1640,11,289,33,1,709.4378471374512,occluded
1641,11,297,91,1,2901.937961578369,occluded
1642,11,302,58,2,1909.2998504638672,occluded
1643,11,306,106,1,1392.8618431091309,occluded
1644,11,307,8,1,2160.2091789245605,occluded
1645,11,316,77,3,810.2219104766846,occluded
1646,11,319,62,2,1072.4949836730957,occluded
1647,11,326,51,2,2002.3980140686035,occluded
1648,11,332,120,3,1056.9369792938232,occluded
1649,11,380,138,3,1125.5850791931152,occluded
1650,12,1,87,3,7353.661060333252,occluded
1651,12,2,24,1,1475.9140014648438,occluded
1652,12,3,111,2,1364.4959926605225,occluded
1653,12,4,47,3,633.5470676422119,occluded
1654,12,5,64,2,8167.838096618652,occluded
1655,12,6,107,1,1525.3269672393799,occluded
1656,12,7,67,3,2902.343988418579,occluded
1657,12,8,66,1,3831.028938293457,occluded
1658,12,9,48,1,5537.513017654419,occluded
1659,12,10,104,1,2020.1969146728516,occluded
1660,12,11,33,3,2663.529872894287,occluded
1661,12,12,118,1,7029.5350551605225,occluded
1662,12,13,119,1,3835.2270126342773,occluded
1663,12,14,82,3,4174.376010894775,occluded
1664,12,15,31,3,4343.020915985107,occluded
1665,12,16,124,1,5179.0149211883545,occluded
1666,12,17,97,1,2757.986068725586,occluded
1667,12,18,120,2,3831.1731815338135,occluded
1668,12,19,23,1,821.998119354248,occluded
1669,12,20,5,1,8642.246007919312,occluded
1670,12,21,148,2,663.3410453796387,occluded
1671,12,22,106,3,2054.711103439331,occluded
1672,12,23,117,2,3028.650999069214,occluded
1673,12,24,25,3,679.5990467071533,occluded
1674,12,25,102,2,4163.028955459595,occluded
1675,12,26,56,3,493.9749240875244,occluded
1676,12,27,95,3,424.4990348815918,occluded
1677,12,28,35,1,1719.3920612335205,occluded
1678,12,29,137,1,1499.4559288024902,occluded
1679,12,30,105,2,598.0629920959473,occluded
1680,12,31,3,1,5492.41304397583,occluded
1681,12,32,149,1,3459.9921703338623,occluded
1682,12,33,86,2,1519.4389820098877,occluded
1683,12,34,77,1,3883.9449882507324,occluded
1684,12,35,11,3,6064.631223678589,occluded
1685,12,36,41,3,1045.6619262695312,occluded
1686,12,37,81,2,3316.1778450012207,occluded
1687,12,38,139,3,5186.126947402954,occluded
1688,12,39,80,1,4873.517036437988,occluded
1689,12,40,14,1,6128.159999847412,occluded
1690,12,41,17,3,5837.323188781738,occluded
1691,12,42,150,3,1261.6591453552246,occluded
1692,12,43,57,1,1009.2499256134033,occluded
1693,12,44,45,2,2247.2708225250244,occluded
1694,12,45,126,1,4615.370988845825,occluded
1695,12,46,16,3,4720.4430103302,occluded
1696,12,47,135,3,4365.324974060059,occluded
1697,12,48,71,3,7044.659852981567,occluded
1698,12,49,127,2,10914.736986160278,occluded
1699,12,50,143,2,4178.816795349121,occluded
1700,12,51,140,3,1680.9909343719482,occluded
1701,12,52,59,3,2279.6571254730225,occluded
1702,12,53,93,2,1320.6231594085693,occluded
1703,12,54,51,3,4025.991916656494,occluded
1704,12,55,39,3,5778.72109413147,occluded
1705,12,56,62,1,1071.173906326294,occluded
1706,12,57,91,3,4533.356189727783,occluded
1707,12,58,29,3,8653.779983520508,occluded
1708,12,59,26,3,1299.0758419036865,occluded
1709,12,60,142,1,7532.936096191406,occluded
1710,12,61,2,3,3983.7560653686523,occluded
1711,12,62,27,3,3454.965114593506,occluded
1712,12,63,134,3,2504.2481422424316,occluded
1713,12,64,6,1,1951.5979290008545,occluded
1714,12,65,147,1,6064.41593170166,occluded
1715,12,66,36,2,8121.855974197388,occluded
1716,12,67,109,1,1212.9440307617188,occluded
1717,12,68,60,2,6706.300973892212,occluded
1718,12,69,130,2,619.1799640655518,occluded
1719,12,70,100,3,1746.4699745178223,occluded
1720,12,71,70,2,4350.727081298828,occluded
1721,12,72,30,1,1732.8500747680664,occluded
1722,12,73,53,3,553.9059638977051,occluded
1723,12,74,84,2,2614.3789291381836,occluded
1724,12,75,65,1,1658.041000366211,occluded
1725,12,76,54,1,1250.9500980377197,occluded
1726,12,77,138,1,3928.0331134796143,occluded
1727,12,78,116,3,3788.156032562256,occluded
1728,12,79,55,3,1222.7678298950195,occluded
1729,12,80,22,3,2362.255811691284,occluded
1730,12,81,99,3,6780.571222305298,occluded
1731,12,82,136,2,4802.126169204712,occluded
1732,12,84,92,1,1996.7620372772217,occluded
1733,12,85,63,2,1492.51389503479,occluded
1734,12,86,43,3,6010.389089584351,occluded
1735,12,90,74,1,2441.9569969177246,occluded
1736,12,91,83,2,1619.8160648345947,occluded
1737,12,93,38,2,2342.2889709472656,occluded
1738,12,94,94,2,5957.236051559448,occluded
1739,12,97,19,2,8109.706163406372,occluded
1740,12,98,12,3,5891.515016555786,occluded
1741,12,99,1,3,10303.116083145142,occluded
1742,12,100,131,1,5465.137958526611,occluded
1743,12,102,32,1,2448.5819339752197,occluded
1744,12,103,58,1,4708.0090045928955,occluded
1745,12,106,4,2,3006.4921379089355,occluded
1746,12,107,76,1,3965.9202098846436,occluded
1747,12,109,79,3,2721.8198776245117,occluded
1748,12,111,113,1,535.5610847473145,occluded
1749,12,112,10,3,3145.4410552978516,occluded
1750,12,113,61,3,4146.895170211792,occluded
1751,12,114,20,1,1485.968828201294,occluded
1752,12,115,18,3,1137.4168395996094,occluded
1753,12,118,123,2,3968.172073364258,occluded
1754,12,121,40,1,2555.030107498169,occluded
1755,12,122,37,3,4038.532018661499,occluded
1756,12,123,125,1,3159.4271659851074,occluded
1757,12,126,21,1,3080.9290409088135,occluded
1758,12,127,98,1,1110.687017440796,occluded
1759,12,129,50,1,2957.491874694824,occluded
1760,12,132,112,1,4585.320949554443,occluded
1761,12,133,108,1,10138.763904571533,occluded
1762,12,139,7,2,2196.9668865203857,occluded
1763,12,140,52,1,457.5228691101074,occluded
1764,12,142,13,3,5570.000171661377,occluded
1765,12,143,129,1,4438.004016876221,occluded
1766,12,144,89,1,1187.769889831543,occluded
1767,12,145,128,2,1799.562931060791,occluded
1768,12,148,75,1,2839.657783508301,occluded
1769,12,149,28,2,6670.066833496094,occluded
1770,12,154,78,3,440.20795822143555,occluded
1771,12,156,73,3,1895.0328826904297,occluded
1772,12,158,46,1,3448.6398696899414,occluded
1773,12,163,110,1,2121.157169342041,occluded
1774,12,166,133,2,1703.5009860992432,occluded
1775,12,170,122,2,4465.785026550293,occluded
1776,12,173,132,1,1530.1110744476318,occluded
1777,12,179,42,3,6453.840970993042,occluded
1778,12,183,145,3,479.7348976135254,occluded
1779,12,186,115,1,4384.022951126099,occluded
1780,12,190,68,3,3813.040018081665,occluded
1781,12,192,8,1,9321.917057037354,occluded
1782,12,196,34,3,3024.2769718170166,occluded
1783,12,207,85,1,1954.387903213501,occluded
1784,12,210,9,1,4633.09383392334,occluded
1785,12,214,96,3,1991.731882095337,occluded
1786,12,215,88,1,3234.04598236084,occluded
1787,12,223,144,1,2583.4269523620605,occluded
1788,12,254,69,3,6521.406888961792,occluded
1789,12,283,101,3,5141.77680015564,occluded
1790,12,289,49,1,1724.247932434082,occluded
1791,12,297,141,3,9391.483068466187,occluded
1792,12,302,114,2,2388.244867324829,occluded
1793,12,306,44,1,2186.9711875915527,occluded
1794,12,307,103,3,6447.92103767395,occluded
1795,12,316,90,1,6042.080879211426,occluded
1796,12,319,146,1,7633.788108825684,occluded
1797,12,326,121,3,2412.113904953003,occluded
1798,12,332,72,2,3482.7120304107666,occluded
1799,12,380,15,3,7257.904052734375,occluded
1800,13,1,104,1,3096.191883087158,occluded
1801,13,2,9,3,7877.17604637146,occluded
1802,13,3,14,2,1985.1100444793701,occluded
1803,13,4,80,3,593.2090282440186,occluded
1804,13,5,7,2,3572.6029872894287,occluded
1805,13,6,73,1,2341.623067855835,occluded
1806,13,7,31,2,3354.1958332061768,occluded
1807,13,8,129,1,2374.9139308929443,occluded
1808,13,9,113,3,4044.0351963043213,occluded
1809,13,10,68,3,2863.0170822143555,occluded
1810,13,11,63,3,5727.713108062744,occluded
1811,13,12,119,3,7342.638969421387,occluded
1812,13,13,61,1,3981.3551902770996,occluded
1813,13,14,83,3,1947.624921798706,occluded
1814,13,15,101,1,1204.1518688201904,occluded
1815,13,16,15,2,2848.3970165252686,occluded
1816,13,17,46,1,2707.6029777526855,occluded
1817,13,18,141,3,1226.5479564666748,occluded
1818,13,19,114,1,1186.5921020507812,occluded
1819,13,20,4,3,6830.703020095825,occluded
1820,13,21,78,2,546.2570190429688,occluded
1821,13,22,20,3,2917.7350997924805,occluded
1822,13,23,133,2,2485.7420921325684,occluded
1823,13,24,66,3,736.6979122161865,occluded
1824,13,25,116,2,5552.771091461182,occluded
1825,13,26,69,3,563.5318756103516,occluded
1826,13,27,40,3,1492.7709102630615,occluded
1827,13,28,62,2,1291.8457984924316,occluded
1828,13,29,24,1,3093.480110168457,occluded
1829,13,30,70,2,677.5400638580322,occluded
1830,13,31,53,1,1474.3170738220215,occluded
1831,13,32,36,3,4177.572965621948,occluded
1832,13,33,18,2,1381.795883178711,occluded
1833,13,34,64,1,6591.979026794434,occluded
1834,13,35,6,3,5298.823833465576,occluded
1835,13,36,44,3,1648.4019756317139,occluded
1836,13,37,74,2,7224.799871444702,occluded
1837,13,38,103,3,7042.9370403289795,occluded
1838,13,39,140,1,1124.6678829193115,occluded
1839,13,40,25,1,3876.1720657348633,occluded
1840,13,41,10,3,4301.833152770996,occluded
1841,13,42,57,1,4550.991058349609,occluded
1842,13,43,86,1,1678.6210536956787,occluded
1843,13,44,100,2,6809.972047805786,occluded
1844,13,45,109,2,2884.7038745880127,occluded
1845,13,46,121,1,1225.5659103393555,occluded
1846,13,47,49,2,1852.6740074157715,occluded
1847,13,48,146,1,2966.482162475586,occluded
1848,13,49,93,2,1238.2771968841553,occluded
1849,13,50,89,2,2072.3979473114014,occluded
1850,13,51,52,1,2696.8460083007812,occluded
1851,13,52,122,3,1589.5700454711914,occluded
1852,13,53,38,2,3565.5128955841064,occluded
1853,13,54,97,2,4934.480905532837,occluded
1854,13,55,42,2,2274.1668224334717,occluded
1855,13,56,21,1,2046.571969985962,occluded
1856,13,57,117,3,608.3929538726807,occluded
1857,13,58,8,1,6138.525009155273,occluded
1858,13,59,54,2,4622.010946273804,occluded
1859,13,60,43,2,1802.9990196228027,occluded
1860,13,61,150,1,2371.5739250183105,occluded
1861,13,62,2,3,6819.638013839722,occluded
1862,13,63,98,3,4376.636981964111,occluded
1863,13,64,45,1,5727.741003036499,occluded
1864,13,65,85,1,8417.103052139282,occluded
1865,13,66,123,2,3648.289918899536,occluded
1866,13,67,96,1,579.3590545654297,occluded
1867,13,68,26,2,1628.986120223999,occluded
1868,13,69,138,2,735.9490394592285,occluded
1869,13,70,23,3,4589.378118515015,occluded
1870,13,71,34,1,985.5608940124512,occluded
1871,13,72,142,1,2256.3960552215576,occluded
1872,13,73,47,3,1659.5039367675781,occluded
1873,13,74,50,2,3604.3570041656494,occluded
1874,13,75,58,3,4935.780048370361,occluded
1875,13,76,143,1,1662.4469757080078,occluded
1876,13,77,130,2,4260.467052459717,occluded
1877,13,78,27,2,5645.7579135894775,occluded
1878,13,79,82,3,568.3310031890869,occluded
1879,13,80,71,3,2072.610855102539,occluded
1880,13,81,1,3,4198.055028915405,occluded
1881,13,82,149,3,3095.7958698272705,occluded
1882,13,84,90,1,3993.8488006591797,occluded
1883,13,85,30,1,5643.29195022583,occluded
1884,13,86,19,2,7099.38907623291,occluded
1885,13,90,120,3,4818.042993545532,occluded
1886,13,91,134,2,2966.360092163086,occluded
1887,13,93,102,2,1088.7808799743652,occluded
1888,13,94,127,2,4427.9890060424805,occluded
1889,13,97,55,1,5800.56095123291,occluded
1890,13,98,124,1,4558.477878570557,occluded
1891,13,99,60,3,2754.9118995666504,occluded
1892,13,100,145,1,4881.93678855896,occluded
1893,13,102,131,2,1834.9871635437012,occluded
1894,13,103,128,1,6376.737117767334,occluded
1895,13,106,76,2,1530.6410789489746,occluded
1896,13,107,126,2,4451.493978500366,occluded
1897,13,109,137,2,2360.6550693511963,occluded
1898,13,111,118,1,501.89685821533203,occluded
1899,13,112,16,3,1843.1260585784912,occluded
1900,13,113,81,3,2086.9009494781494,occluded
1901,13,114,35,1,1684.1859817504883,occluded
1902,13,115,108,3,3767.7831649780273,occluded
1903,13,118,56,2,6517.215967178345,occluded
1904,13,121,99,1,2292.8600311279297,occluded
1905,13,122,41,1,2317.570924758911,occluded
1906,13,123,84,1,3114.922046661377,occluded
1907,13,126,32,3,4067.7411556243896,occluded
1908,13,127,39,1,5842.308044433594,occluded
1909,13,129,12,1,1640.779972076416,occluded
1910,13,132,106,2,3133.668899536133,occluded
1911,13,133,29,2,3288.9959812164307,occluded
1912,13,139,13,2,3359.596014022827,occluded
1913,13,140,91,1,1130.8128833770752,occluded
1914,13,142,105,2,5229.360103607178,occluded
1915,13,143,77,1,2815.1071071624756,occluded
1916,13,144,144,1,1918.1251525878906,occluded
1917,13,145,95,2,2905.992031097412,occluded
1918,13,148,67,1,2882.5972080230713,occluded
1919,13,149,33,2,3787.6648902893066,occluded
1920,13,154,59,1,4323.203086853027,occluded
1921,13,156,17,3,1974.5428562164307,occluded
1922,13,158,107,3,4331.044912338257,occluded
1923,13,163,72,1,1255.5458545684814,occluded
1924,13,166,22,2,3715.988874435425,occluded
1925,13,170,148,2,3268.623113632202,occluded
1926,13,173,125,2,2927.9489517211914,occluded
1927,13,179,87,1,4738.126039505005,occluded
1928,13,183,147,3,763.4918689727783,occluded
1929,13,186,37,1,1426.476001739502,occluded
1930,13,190,94,2,3889.9807929992676,occluded
1931,13,192,139,2,1863.0108833312988,occluded
1932,13,196,28,3,4971.487998962402,occluded
1933,13,207,92,1,2572.396993637085,occluded
1934,13,210,75,1,4550.765037536621,occluded
1935,13,214,5,1,3110.579013824463,occluded
1936,13,215,48,1,1157.8872203826904,occluded
1937,13,223,135,1,3399.449110031128,occluded
1938,13,254,11,1,2982.5539588928223,occluded
1939,13,283,3,2,5025.266885757446,occluded
1940,13,289,112,1,1804.0010929107666,occluded
1941,13,297,111,3,3928.6608695983887,occluded
1942,13,302,110,2,145.48492431640625,occluded
1943,13,306,132,1,3236.543893814087,occluded
1944,13,307,51,1,3178.347110748291,occluded
1945,13,316,65,2,8656.543970108032,occluded
1946,13,319,115,1,3990.4661178588867,occluded
1947,13,326,79,2,5918.63489151001,occluded
1948,13,332,136,2,4853.008985519409,occluded
1949,13,380,88,3,3329.8840522766113,occluded
1950,14,1,65,1,1687.6909732818604,occluded
1951,14,2,69,3,5460.314989089966,occluded
1952,14,3,147,2,931.6160678863525,occluded
1953,14,4,37,3,2838.0110263824463,occluded
1954,14,5,44,2,4125.216960906982,occluded
1955,14,6,5,1,8644.50216293335,occluded
1956,14,7,131,3,3487.0388507843018,occluded
1957,14,8,96,1,1720.047950744629,occluded
1958,14,9,91,1,1618.3440685272217,occluded
1959,14,10,92,3,1116.1298751831055,occluded
1960,14,11,34,3,1633.01682472229,occluded
1961,14,12,109,1,3002.5370121002197,occluded
1962,14,13,8,1,5276.19194984436,occluded
1963,14,14,84,3,943.2101249694824,occluded
1964,14,15,116,1,1814.5530223846436,occluded
1965,14,16,125,2,1566.6630268096924,occluded
1966,14,17,15,1,1473.4690189361572,occluded
1967,14,18,98,3,1954.676866531372,occluded
1968,14,19,111,1,2343.2629108428955,occluded
1969,14,20,138,3,1605.9460639953613,occluded
1970,14,21,94,2,890.4709815979004,occluded
1971,14,22,126,2,1615.4289245605469,occluded
1972,14,23,123,1,1604.7568321228027,occluded
1973,14,24,52,3,706.1340808868408,occluded
1974,14,25,117,2,5299.021005630493,occluded
1975,14,26,110,3,878.8089752197266,occluded
1976,14,27,22,3,833.7888717651367,occluded
1977,14,28,112,1,1588.6521339416504,occluded
1978,14,29,25,1,3090.3100967407227,occluded
1979,14,30,29,2,923.5339164733887,occluded
1980,14,31,43,1,2032.508134841919,occluded
1981,14,32,46,1,1996.6199398040771,occluded
1982,14,33,3,2,2018.0728435516357,occluded
1983,14,34,63,3,1593.6598777770996,occluded
1984,14,35,41,1,6200.1190185546875,occluded
1985,14,36,19,3,2235.99910736084,occluded
1986,14,37,115,1,2961.6501331329346,occluded
1987,14,38,14,3,2297.3480224609375,occluded
1988,14,39,26,1,1665.7860279083252,occluded
1989,14,40,13,1,1844.4809913635254,occluded
1990,14,41,100,1,1901.8828868865967,occluded
1991,14,42,137,1,1939.1019344329834,occluded
1992,14,43,107,1,2326.1539936065674,occluded
1993,14,44,39,3,1202.0001411437988,occluded
1994,14,45,12,2,1347.0590114593506,occluded
1995,14,46,70,1,1686.3811016082764,occluded
1996,14,47,73,2,2723.8030433654785,occluded
1997,14,48,67,3,2470.7400798797607,occluded
1998,14,49,64,2,1300.5940914154053,occluded
1999,14,50,124,2,1993.6189651489258,occluded
2000,14,51,10,3,1680.9499263763428,occluded
2001,14,52,40,3,829.5319080352783,occluded
2002,14,53,149,2,2000.128984451294,occluded
2003,14,54,6,2,8345.907211303711,occluded
2004,14,55,45,2,2679.6159744262695,occluded
2005,14,56,72,1,3054.1229248046875,occluded
2006,14,57,16,3,1274.0070819854736,occluded
2007,14,58,47,3,4553.053140640259,occluded
2008,14,59,148,3,1295.7420349121094,occluded
2009,14,60,142,1,1427.178144454956,occluded
2010,14,61,23,1,2296.020030975342,occluded
2011,14,62,81,3,2507.4820518493652,occluded
2012,14,63,49,3,2887.683153152466,occluded
2013,14,64,24,1,4204.025030136108,occluded
2014,14,65,71,3,2302.6950359344482,occluded
2015,14,66,136,2,1189.267873764038,occluded
2016,14,67,66,1,1310.6250762939453,occluded
2017,14,68,48,2,1819.7050094604492,occluded
2018,14,69,133,2,1095.5500602722168,occluded
2019,14,70,83,2,223.1600284576416,occluded
2020,14,71,79,1,3717.661142349243,occluded
2021,14,72,17,1,2585.728168487549,occluded
2022,14,73,7,3,2337.0211124420166,occluded
2023,14,74,95,2,1459.562063217163,occluded
2024,14,75,90,1,2979.573965072632,occluded
2025,14,76,9,1,6171.121835708618,occluded
2026,14,77,146,2,1829.322099685669,occluded
2027,14,78,130,2,1110.6030941009521,occluded
2028,14,79,11,3,1686.662197113037,occluded
2029,14,80,21,1,993.5979843139648,occluded
2030,14,81,141,3,1155.5819511413574,occluded
2031,14,82,60,2,1271.9731330871582,occluded
2032,14,84,20,1,3354.3457984924316,occluded
2033,14,85,135,2,1840.1310443878174,occluded
2034,14,86,86,2,1804.3301105499268,occluded
2035,14,90,105,3,1450.9379863739014,occluded
2036,14,91,32,2,2600.296974182129,occluded
2037,14,93,55,2,1165.4767990112305,occluded
2038,14,94,97,2,1532.3638916015625,occluded
2039,14,97,68,3,1601.3050079345703,occluded
2040,14,98,38,1,1771.8751430511475,occluded
2041,14,99,31,1,1446.5301036834717,occluded
2042,14,100,80,3,2689.573049545288,occluded
2043,14,102,2,2,4468.811988830566,occluded
2044,14,103,102,1,2857.599973678589,occluded
2045,14,106,50,2,3484.6670627593994,occluded
2046,14,107,61,1,1005.073070526123,occluded
2047,14,109,62,3,2657.413959503174,occluded
2048,14,111,28,1,734.6310615539551,occluded
2049,14,112,113,3,2893.4788703918457,occluded
2050,14,113,144,3,2600.5139350891113,occluded
2051,14,114,127,2,1933.4630966186523,occluded
2052,14,115,122,3,1952.7721405029297,occluded
2053,14,118,78,3,3149.8160362243652,occluded
2054,14,121,99,1,1352.1819114685059,occluded
2055,14,122,128,1,1223.0288982391357,occluded
2056,14,123,76,1,3448.2059478759766,occluded
2057,14,126,36,3,1670.1362133026123,occluded
2058,14,127,27,1,1341.2978649139404,occluded
2059,14,129,120,1,2142.086982727051,occluded
2060,14,132,145,2,1474.5371341705322,occluded
2061,14,133,93,1,892.4078941345215,occluded
2062,14,139,119,2,1562.6380443572998,occluded
2063,14,140,129,1,1297.4648475646973,occluded
2064,14,142,54,1,2271.9480991363525,occluded
2065,14,143,77,1,1422.6391315460205,occluded
2066,14,144,56,3,3135.546922683716,occluded
2067,14,145,74,2,3700.8609771728516,occluded
2068,14,148,132,1,1886.7759704589844,occluded
2069,14,149,57,2,2065.6909942626953,occluded
2070,14,154,58,3,2010.680913925171,occluded
2071,14,156,1,3,4185.142993927002,occluded
2072,14,158,87,3,1739.2959594726562,occluded
2073,14,163,59,1,1292.3059463500977,occluded
2074,14,166,30,2,3827.188014984131,occluded
2075,14,170,88,1,2896.9788551330566,occluded
2076,14,173,33,2,1606.3079833984375,occluded
2077,14,179,150,3,2241.5668964385986,occluded
2078,14,183,35,3,1029.2580127716064,occluded
2079,14,186,53,1,1678.4310340881348,occluded
2080,14,190,139,3,2256.3211917877197,occluded
2081,14,192,85,2,2612.5900745391846,occluded
2082,14,196,106,3,2721.9951152801514,occluded
2083,14,207,75,1,3173.5570430755615,occluded
2084,14,210,121,1,978.7330627441406,occluded
2085,14,214,82,1,1003.9660930633545,occluded
2086,14,215,51,1,1634.948968887329,occluded
2087,14,223,42,1,3316.406011581421,occluded
2088,14,254,89,1,1606.0600280761719,occluded
2089,14,283,140,1,1501.2190341949463,occluded
2090,14,289,108,1,2557.405948638916,occluded
2091,14,297,114,3,3723.4761714935303,occluded
2092,14,302,104,3,1683.1200122833252,occluded
2093,14,306,134,1,1404.5069217681885,occluded
2094,14,307,101,3,1298.3119487762451,occluded
2095,14,316,4,3,2743.65496635437,occluded
2096,14,319,18,1,3782.317876815796,occluded
2097,14,326,143,2,1361.6259098052979,occluded
2098,14,332,103,3,1985.9228134155273,occluded
2099,14,380,118,3,1699.079990386963,occluded
2100,15,1,25,1,1363.9590740203857,occluded
2101,15,2,103,3,2461.500883102417,occluded
2102,15,3,81,2,633.5690021514893,occluded
2103,15,4,76,3,496.884822845459,occluded
2104,15,5,28,1,1218.5239791870117,occluded
2105,15,6,26,1,2415.153980255127,occluded
2106,15,7,6,3,1804.5649528503418,occluded
2107,15,8,47,1,690.7939910888672,occluded
2108,15,9,31,1,1251.3210773468018,occluded
2109,15,10,64,3,1159.7061157226562,occluded
2110,15,11,45,3,1488.7139797210693,occluded
2111,15,12,74,2,2252.281904220581,occluded
2112,15,13,10,1,1316.9138431549072,occluded
2113,15,14,68,3,1241.933822631836,occluded
2114,15,15,83,2,1166.8810844421387,occluded
2115,15,16,137,2,859.9050045013428,occluded
2116,15,17,34,1,738.206148147583,occluded
2117,15,18,56,3,872.1249103546143,occluded
2118,15,19,101,1,1365.407943725586,occluded
2119,15,20,13,3,1153.7370681762695,occluded
2120,15,21,129,2,1999.2220401763916,occluded
2121,15,22,85,3,803.6448955535889,occluded
2122,15,23,148,2,1241.7027950286865,occluded
2123,15,24,8,3,565.479040145874,occluded
2124,15,25,21,2,1986.2980842590332,occluded
2125,15,26,78,3,955.725908279419,occluded
2126,15,27,52,3,448.9929676055908,occluded
2127,15,28,48,1,793.0850982666016,occluded
2128,15,29,73,1,1237.2889518737793,occluded
2129,15,30,57,2,420.1219081878662,occluded
2130,15,31,55,1,621.833086013794,occluded
2131,15,32,87,1,1168.6890125274658,occluded
2132,15,33,22,2,585.0939750671387,occluded
2133,15,34,82,3,2852.5381088256836,occluded
2134,15,35,40,3,1374.4921684265137,occluded
2135,15,36,144,3,788.0511283874512,occluded
2136,15,37,44,3,1675.4961013793945,occluded
2137,15,38,24,3,3757.333993911743,occluded
2138,15,39,49,1,653.05495262146,occluded
2139,15,40,42,1,1426.37300491333,occluded
2140,15,41,63,3,1476.8550395965576,occluded
2141,15,42,93,1,2047.886848449707,occluded
2142,15,43,43,1,841.8700695037842,occluded
2143,15,44,105,2,1358.091115951538,occluded
2144,15,45,134,2,2554.861068725586,occluded
2145,15,46,145,2,1713.3259773254395,occluded
2146,15,47,132,2,723.9317893981934,occluded
2147,15,48,138,1,2160.6431007385254,occluded
2148,15,49,122,3,1573.6730098724365,occluded
2149,15,50,97,2,2944.0600872039795,occluded
2150,15,51,53,3,923.1390953063965,occluded
2151,15,52,4,3,1706.0987949371338,occluded
2152,15,53,95,2,999.8350143432617,occluded
2153,15,54,108,2,1399.6250629425049,occluded
2154,15,55,107,2,1767.6301002502441,occluded
2155,15,56,9,2,3500.030994415283,occluded
2156,15,57,60,3,392.40193367004395,occluded
2157,15,58,121,3,907.7649116516113,occluded
2158,15,59,124,3,880.1960945129395,occluded
2159,15,60,99,1,2409.9202156066895,occluded
2160,15,61,46,3,2344.1388607025146,occluded
2161,15,62,5,3,1726.1369228363037,occluded
2162,15,63,143,3,1282.027006149292,occluded
2163,15,64,110,1,972.1229076385498,occluded
2164,15,65,11,1,2121.56081199646,occluded
2165,15,66,89,3,1265.5181884765625,occluded
2166,15,67,135,1,442.2299861907959,occluded
2167,15,68,72,2,880.6490898132324,occluded
2168,15,69,39,2,454.06103134155273,occluded
2169,15,70,100,3,1191.532850265503,occluded
2170,15,71,50,2,1071.8889236450195,occluded
2171,15,72,35,1,2181.8559169769287,occluded
2172,15,73,16,3,474.0450382232666,occluded
2173,15,74,102,2,1066.3928985595703,occluded
2174,15,75,54,1,2841.6950702667236,occluded
2175,15,76,115,1,1041.1431789398193,occluded
2176,15,77,37,2,2347.8240966796875,occluded
2177,15,78,125,2,1700.6680965423584,occluded
2178,15,79,79,3,406.4610004425049,occluded
2179,15,80,38,1,2098.1788635253906,occluded
2180,15,81,77,3,966.9289588928223,occluded
2181,15,82,123,3,2752.7999877929688,occluded
2182,15,84,65,1,1156.2469005584717,occluded
2183,15,85,3,1,3712.9600048065186,occluded
2184,15,86,66,3,1257.0750713348389,occluded
2185,15,90,51,3,2136.826992034912,occluded
2186,15,91,41,2,1422.0860004425049,occluded
2187,15,93,117,2,457.05699920654297,occluded
2188,15,94,136,2,916.5990352630615,occluded
2189,15,97,120,3,1063.2450580596924,occluded
2190,15,98,130,1,1792.647123336792,occluded
2191,15,99,98,3,971.5230464935303,occluded
2192,15,100,106,1,3048.110008239746,occluded
2193,15,102,71,2,744.0741062164307,occluded
2194,15,103,67,1,2280.987024307251,occluded
2195,15,106,30,2,1347.1999168395996,occluded
2196,15,107,140,1,599.2860794067383,occluded
2197,15,109,94,3,2143.1400775909424,occluded
2198,15,111,146,3,1336.503028869629,occluded
2199,15,112,62,3,1794.5599555969238,occluded
2200,15,113,70,2,1026.954174041748,occluded
2201,15,114,131,1,933.9702129364014,occluded
2202,15,115,58,3,2074.5890140533447,occluded
2203,15,118,88,2,1686.877965927124,occluded
2204,15,121,127,1,1083.2278728485107,occluded
2205,15,122,61,1,1194.525957107544,occluded
2206,15,123,104,3,1083.751916885376,occluded
2207,15,126,18,3,2901.5300273895264,occluded
2208,15,127,32,3,1085.6940746307373,occluded
2209,15,129,59,1,1506.1631202697754,occluded
2210,15,132,128,2,1432.373046875,occluded
2211,15,133,90,2,1582.9570293426514,occluded
2212,15,139,116,1,1200.9849548339844,occluded
2213,15,140,80,2,944.5490837097168,occluded
2214,15,142,126,2,3556.6511154174805,occluded
2215,15,143,119,1,1208.036184310913,occluded
2216,15,144,1,1,4275.796175003052,occluded
2217,15,145,84,2,992.0811653137207,occluded
2218,15,148,109,1,914.6928787231445,occluded
2219,15,149,17,2,2513.9479637145996,occluded
2220,15,154,27,3,501.8420219421387,occluded
2221,15,156,20,3,1733.093023300171,occluded
2222,15,158,33,3,2008.4781646728516,occluded
2223,15,163,113,1,1445.911169052124,occluded
2224,15,166,112,2,1024.8758792877197,occluded
2225,15,170,14,2,2723.5891819000244,occluded
2226,15,173,86,2,1054.8529624938965,occluded
2227,15,179,118,1,1746.8030452728271,occluded
2228,15,183,12,3,507.28893280029297,occluded
2229,15,186,75,1,1049.4019985198975,occluded
2230,15,190,133,3,3926.701068878174,occluded
2231,15,192,139,2,4821.338891983032,occluded
2232,15,196,92,3,1901.2999534606934,occluded
2233,15,207,19,1,3008.16011428833,occluded
2234,15,210,147,1,1913.3200645446777,occluded
2235,15,214,23,3,6448.423147201538,occluded
2236,15,215,142,1,2081.8750858306885,occluded
2237,15,223,91,1,1017.7960395812988,occluded
2238,15,254,2,3,2700.3679275512695,occluded
2239,15,283,15,1,1798.8369464874268,occluded
2240,15,289,149,2,1076.4148235321045,occluded
2241,15,297,150,3,3196.3038444519043,occluded
2242,15,302,29,2,3498.0380535125732,occluded
2243,15,306,111,1,1179.9290180206299,occluded
2244,15,307,69,3,1405.9181213378906,occluded
2245,15,316,96,3,1385.2808475494385,occluded
2246,15,319,36,1,4084.473133087158,occluded
2247,15,326,7,3,1063.0860328674316,occluded
2248,15,332,141,1,1044.6960926055908,occluded
2249,15,380,114,3,2421.1409091949463,occluded
2250,16,1,24,3,3628.2830238342285,occluded
2251,16,2,62,3,4307.342052459717,occluded
2252,16,3,84,2,438.870906829834,occluded
2253,16,4,127,3,710.8139991760254,occluded
2254,16,5,86,2,2343.3890342712402,occluded
2255,16,6,88,1,6325.433015823364,occluded
2256,16,7,59,3,5602.591991424561,occluded
2257,16,8,45,1,1956.8719863891602,occluded
2258,16,9,70,3,4478.97481918335,occluded
2259,16,10,23,3,5917.301893234253,occluded
2260,16,11,102,3,3205.118179321289,occluded
2261,16,12,26,3,4269.965171813965,occluded
2262,16,13,122,2,5957.218170166016,occluded
2263,16,14,68,3,2814.291000366211,occluded
2264,16,15,148,1,1348.620891571045,occluded
2265,16,16,110,2,1851.896047592163,occluded
2266,16,17,126,1,1388.5579109191895,occluded
2267,16,18,43,2,6110.331058502197,occluded
2268,16,19,74,2,5344.213962554932,occluded
2269,16,20,61,3,8365.669965744019,occluded
2270,16,21,4,2,791.815996170044,occluded
2271,16,22,6,2,8721.982955932617,occluded
2272,16,23,142,2,1857.064962387085,occluded
2273,16,24,141,3,2446.682929992676,occluded
2274,16,25,28,2,4270.730972290039,occluded
2275,16,26,76,2,4488.0640506744385,occluded
2276,16,27,147,3,875.4920959472656,occluded
2277,16,28,90,1,1495.9979057312012,occluded
2278,16,29,66,1,2332.5321674346924,occluded
2279,16,30,80,2,591.0279750823975,occluded
2280,16,31,96,1,1656.3379764556885,occluded
2281,16,32,67,1,6703.529119491577,occluded
2282,16,33,131,2,604.7520637512207,occluded
2283,16,34,54,1,10296.4608669281,occluded
2284,16,35,118,1,3705.5089473724365,occluded
2285,16,36,20,3,3673.923969268799,occluded
2286,16,37,34,1,3363.853931427002,occluded
2287,16,38,95,3,9362.152814865112,occluded
2288,16,39,39,1,1606.4810752868652,occluded
2289,16,40,64,1,6876.452207565308,occluded
2290,16,41,3,3,8914.231061935425,occluded
2291,16,42,93,1,7654.547929763794,occluded
2292,16,43,19,1,1095.872163772583,occluded
2293,16,44,101,2,4652.08101272583,occluded
2294,16,45,143,1,3993.961811065674,occluded
2295,16,46,138,2,4291.931867599487,occluded
2296,16,47,33,3,6033.097982406616,occluded
2297,16,48,41,1,3133.8400840759277,occluded
2298,16,49,60,2,5027.15802192688,occluded
2299,16,50,52,2,7582.320928573608,occluded
2300,16,51,55,3,2276.7739295959473,occluded
2301,16,52,87,3,11438.162803649902,occluded
2302,16,53,40,2,4326.460838317871,occluded
2303,16,54,99,2,5114.941835403442,occluded
2304,16,55,38,2,6408.423185348511,occluded
2305,16,56,83,2,4371.142864227295,occluded
2306,16,57,32,3,2319.8060989379883,occluded
2307,16,58,140,3,1236.8788719177246,occluded
2308,16,59,116,3,1947.0951557159424,occluded
2309,16,60,22,2,6355.783939361572,occluded
2310,16,61,145,3,3763.3919715881348,occluded
2311,16,62,77,1,5215.579986572266,occluded
2312,16,63,108,3,3157.8009128570557,occluded
2313,16,64,51,2,3578.9239406585693,occluded
2314,16,65,149,1,4728.0731201171875,occluded
2315,16,66,89,3,4647.6380825042725,occluded
2316,16,67,11,1,886.599063873291,occluded
2317,16,68,72,2,1934.2119693756104,occluded
2318,16,69,146,2,736.9379997253418,occluded
2319,16,70,12,1,3444.5130825042725,occluded
2320,16,71,37,2,3120.2940940856934,occluded
2321,16,72,121,1,5761.143922805786,occluded
2322,16,73,50,3,780.0660133361816,occluded
2323,16,74,94,2,1645.462989807129,occluded
2324,16,75,119,1,2681.596040725708,occluded
2325,16,76,100,1,5572.5061893463135,occluded
2326,16,77,112,2,5553.461074829102,occluded
2327,16,78,109,3,7671.357870101929,occluded
