,participant,trial,order,response,rt,experiment
0,1,1,41,2,1093.31107139587,vision
1,1,2,49,2,3097.88012504578,vision
2,1,3,129,2,1274.96099472046,vision
3,1,4,137,3,1526.16500854492,vision
4,1,5,147,2,6566.92409515381,vision
5,1,6,29,1,4744.1349029541,vision
6,1,7,34,3,8466.98307991028,vision
7,1,8,139,1,11425.4100322723,vision
8,1,9,75,1,1483.2968711853,vision
9,1,10,62,1,4961.49396896362,vision
10,1,11,125,3,3347.54800796509,vision
11,1,12,26,1,1390.92803001404,vision
12,1,13,123,2,6818.37797164917,vision
13,1,14,32,3,1595.82591056824,vision
14,1,15,57,1,1251.74117088318,vision
15,1,16,51,1,1352.81181335449,vision
16,1,17,90,1,2962.55898475647,vision
17,1,18,71,1,1264.36686515808,vision
18,1,19,142,1,1187.05701828003,vision
19,1,20,56,1,1727.23889350891,vision
20,1,21,145,2,1131.50095939636,vision
21,1,22,31,2,3857.22208023071,vision
22,1,23,8,3,2768.5170173645,vision
23,1,24,98,3,2027.70400047302,vision
24,1,25,92,3,5588.8991355896,vision
25,1,26,13,3,1130.4829120636,vision
26,1,27,20,3,1466.23802185059,vision
27,1,28,86,3,1881.05010986328,vision
28,1,29,17,2,5080.52682876587,vision
29,1,30,64,2,1198.99606704712,vision
30,1,31,111,3,13323.6489295959,vision
31,1,32,43,2,873.582124710083,vision
32,1,33,7,2,1360.12387275696,vision
33,1,34,78,1,5282.15599060059,vision
34,1,35,44,2,3778.90992164612,vision
35,1,36,148,3,6610.08095741272,vision
36,1,37,70,2,5805.44996261597,vision
37,1,38,39,3,1580.68108558655,vision
38,1,39,118,2,1430.3719997406,vision
39,1,40,144,1,3881.75487518311,vision
40,1,41,127,1,12522.3319530487,vision
41,1,42,58,2,6170.10807991028,vision
42,1,43,54,1,2290.00091552734,vision
43,1,44,21,3,4249.4649887085,vision
44,1,45,101,1,5321.39897346497,vision
45,1,46,36,3,1403.38706970215,vision
46,1,47,69,3,2942.55995750427,vision
47,1,48,132,3,2530.58695793152,vision
48,1,49,15,3,1827.71301269531,vision
49,1,50,23,2,2613.54517936707,vision
50,1,51,119,1,5903.07211875916,vision
51,1,52,138,3,3727.8470993042,vision
52,1,53,37,3,3457.27801322937,vision
53,1,54,14,3,988.63697052002,vision
54,1,55,135,3,6801.29504203796,vision
55,1,56,47,2,3518.88513565063,vision
56,1,57,115,3,2009.72509384155,vision
57,1,58,48,2,975.887060165405,vision
58,1,59,93,3,5277.25195884705,vision
59,1,60,40,3,1468.41621398926,vision
60,1,61,74,3,4521.1820602417,vision
61,1,62,126,1,3152.99010276794,vision
62,1,63,99,1,7753.53407859802,vision
63,1,64,109,3,11237.7901077271,vision
64,1,65,10,1,985.473155975342,vision
65,1,66,77,2,2223.91510009766,vision
66,1,67,9,1,1180.28497695923,vision
67,1,68,19,3,1493.06297302246,vision
68,1,69,73,2,1113.5618686676,vision
69,1,70,85,1,5358.94894599915,vision
70,1,71,11,2,5845.82209587097,vision
71,1,72,45,1,1092.47303009033,vision
72,1,73,27,3,1557.532787323,vision
73,1,74,143,3,6811.56206130981,vision
74,1,75,65,2,3186.63692474365,vision
75,1,76,88,1,2364.29810523987,vision
76,1,77,28,3,1202.65316963196,vision
77,1,78,100,1,1264.86301422119,vision
78,1,79,124,3,1523.0770111084,vision
79,1,80,133,2,1116.51301383972,vision
80,1,81,67,3,4124.41611289978,vision
81,1,82,42,2,2193.09997558594,vision
82,1,84,141,1,8197.64494895935,vision
83,1,85,59,2,4884.2670917511,vision
84,1,86,107,3,11875.7438659668,vision
85,1,90,53,3,1738.65413665771,vision
86,1,91,146,2,6913.10095787048,vision
87,1,93,117,2,1217.15903282166,vision
88,1,94,18,2,3893.04995536804,vision
89,1,97,102,3,4843.74403953552,vision
90,1,98,63,3,2980.51381111145,vision
91,1,99,76,3,4456.33387565613,vision
92,1,100,80,3,3690.51194190979,vision
93,1,102,112,1,2802.34980583191,vision
94,1,103,136,1,3379.723072052,vision
95,1,106,61,3,4771.82102203369,vision
96,1,107,72,1,1707.01003074646,vision
97,1,109,89,2,10465.6269550323,vision
98,1,111,97,2,5431.62703514099,vision
99,1,112,50,3,5826.96294784546,vision
100,1,113,60,2,7949.14102554321,vision
101,1,114,103,1,1230.79895973206,vision
102,1,115,55,2,2528.26595306396,vision
103,1,118,22,3,1747.24793434143,vision
104,1,121,114,1,3881.82091712952,vision
105,1,122,12,3,1379.12511825562,vision
106,1,123,82,1,2970.73483467102,vision
107,1,126,79,3,3962.89896965027,vision
108,1,127,104,1,8130.42211532593,vision
109,1,129,140,1,2675.64702033997,vision
110,1,132,105,1,6940.59109687805,vision
111,1,133,121,2,3202.72493362427,vision
112,1,139,6,1,1362.21504211426,vision
113,1,140,3,2,1739.48311805725,vision
114,1,142,94,2,2789.17789459229,vision
115,1,143,24,2,2375.88691711426,vision
116,1,144,128,1,7001.67202949524,vision
117,1,145,108,3,3665.83204269409,vision
118,1,148,5,1,1640.81692695618,vision
119,1,149,33,2,3335.47401428223,vision
120,1,154,46,3,1713.02604675293,vision
121,1,156,2,1,2277.81891822815,vision
122,1,158,66,3,1816.96486473083,vision
123,1,163,106,1,3947.16095924377,vision
124,1,166,25,2,8682.32202529907,vision
125,1,170,122,3,5112.25509643555,vision
126,1,173,52,3,2674.5719909668,vision
127,1,179,4,1,2755.48505783081,vision
128,1,183,120,3,1667.35410690308,vision
129,1,186,150,1,3856.36210441589,vision
130,1,190,131,2,4338.22298049927,vision
131,1,192,113,1,9488.6691570282,vision
132,1,196,81,3,8868.51501464844,vision
133,1,207,134,1,13932.2190284729,vision
134,1,210,91,1,3745.17107009888,vision
135,1,214,96,2,2315.0999546051,vision
136,1,215,38,1,2193.07994842529,vision
137,1,223,130,2,5829.26201820374,vision
138,1,254,1,1,1263.82207870483,vision
139,1,283,30,1,1642.40694046021,vision
140,1,289,95,1,6276.18002891541,vision
141,1,297,149,1,7179.08310890198,vision
142,1,302,110,1,3626.33109092712,vision
143,1,306,116,3,2959.6688747406,vision
144,1,307,35,1,1330.95908164978,vision
145,1,316,84,3,3903.78284454346,vision
146,1,319,16,1,7402.28605270386,vision
147,1,326,68,1,1337.65983581543,vision
148,1,332,83,1,7350.20709037781,vision
149,1,380,87,3,4198.15683364868,vision
150,2,1,124,2,993.435144424438,vision
151,2,2,110,3,9759.04989242554,vision
152,2,3,46,2,969.515085220337,vision
153,2,4,128,3,1108.7658405304,vision
154,2,5,83,2,11245.6078529358,vision
155,2,6,142,3,10717.8688049316,vision
156,2,7,5,3,4609.2221736908,vision
157,2,8,123,3,5171.54002189636,vision
158,2,9,140,1,1796.48590087891,vision
159,2,10,76,3,4130.43808937073,vision
160,2,11,99,3,2758.2528591156,vision
161,2,12,147,1,7516.80302619934,vision
162,2,13,80,2,2481.7750453949,vision
163,2,14,68,3,2685.49513816833,vision
164,2,15,102,1,1161.00192070007,vision
165,2,16,143,2,6252.92086601257,vision
166,2,17,77,1,3262.1648311615,vision
167,2,18,85,2,10616.6889667511,vision
168,2,19,130,1,2450.76680183411,vision
169,2,20,18,1,3565.59109687805,vision
170,2,21,1,1,5513.96107673645,vision
171,2,22,134,2,5788.54584693909,vision
172,2,23,41,3,2777.22692489624,vision
173,2,24,58,3,1325.28305053711,vision
174,2,25,37,2,8358.38890075684,vision
175,2,26,93,3,1266.05200767517,vision
176,2,27,61,3,1188.58003616333,vision
177,2,28,97,2,14057.4281215668,vision
178,2,29,26,1,8235.4621887207,vision
179,2,30,17,2,1458.26387405396,vision
180,2,31,78,3,9046.96011543274,vision
181,2,32,131,2,909.114122390747,vision
182,2,33,9,2,2915.04907608032,vision
183,2,34,105,1,6048.48194122314,vision
184,2,35,11,2,3601.08780860901,vision
185,2,36,52,3,6222.05996513367,vision
186,2,37,115,1,5979.19893264771,vision
187,2,38,104,1,9600.81601142883,vision
188,2,39,129,2,952.749967575073,vision
189,2,40,84,1,4955.51300048828,vision
190,2,41,149,3,2451.6818523407,vision
191,2,42,148,2,4703.56392860413,vision
192,2,43,71,2,16173.5692024231,vision
193,2,44,16,1,7417.88196563721,vision
194,2,45,66,1,2374.95303153992,vision
195,2,46,117,2,3379.99081611633,vision
196,2,47,89,3,6523.57602119446,vision
197,2,48,126,3,12917.5519943237,vision
198,2,49,36,3,4505.41615486145,vision
199,2,50,136,3,7706.69388771057,vision
200,2,51,42,1,5488.99483680725,vision
201,2,52,7,3,8689.31984901428,vision
202,2,53,39,1,4113.47603797913,vision
203,2,54,59,3,2004.50396537781,vision
204,2,55,8,2,7990.877866745,vision
205,2,56,30,3,5887.71891593933,vision
206,2,57,69,3,1062.41393089294,vision
207,2,58,20,2,883.33797454834,vision
208,2,59,101,3,9065.75512886047,vision
209,2,60,138,3,5881.3259601593,vision
210,2,61,24,3,1969.75183486938,vision
211,2,62,19,1,2986.50598526001,vision
212,2,63,111,2,12874.6211528778,vision
213,2,64,86,2,6223.94800186157,vision
214,2,65,112,1,4915.45081138611,vision
215,2,66,98,2,15803.0800819397,vision
216,2,67,100,1,1352.91004180908,vision
217,2,68,70,3,1120.42093276978,vision
218,2,69,135,2,850.6178855896,vision
219,2,70,33,1,6056.00714683533,vision
220,2,71,55,1,6297.74713516235,vision
221,2,72,137,1,2864.87889289856,vision
222,2,73,48,3,1200.94895362854,vision
223,2,74,56,3,4872.48587608337,vision
224,2,75,125,2,3466.33911132812,vision
225,2,76,119,3,7914.49809074402,vision
226,2,77,25,3,1172.12891578674,vision
227,2,78,14,1,1373.50511550903,vision
228,2,79,108,3,1220.3209400177,vision
229,2,80,118,1,11934.8428249359,vision
230,2,81,27,3,2312.65902519226,vision
231,2,82,54,3,6989.6080493927,vision
232,2,84,75,1,3246.16503715515,vision
233,2,85,49,1,2316.17903709412,vision
234,2,86,38,3,2048.68602752686,vision
235,2,90,63,3,2475.31390190125,vision
236,2,91,109,2,5393.68391036987,vision
237,2,93,114,2,1085.68596839905,vision
238,2,94,132,2,5643.26000213623,vision
239,2,97,145,3,10180.1888942719,vision
240,2,98,82,2,6388.28492164612,vision
241,2,99,92,3,3590.37899971008,vision
242,2,100,22,3,4958.28700065613,vision
243,2,102,116,1,5860.65697669983,vision
244,2,103,60,1,2100.22497177124,vision
245,2,106,65,3,2155.76195716858,vision
246,2,107,64,3,5287.41002082825,vision
247,2,109,88,3,2961.14087104797,vision
248,2,111,34,1,1558.22896957397,vision
249,2,112,29,3,2169.01803016663,vision
250,2,113,139,1,7329.36882972717,vision
251,2,114,57,1,1039.47281837463,vision
252,2,115,91,3,12306.5800666809,vision
253,2,118,103,3,5822.13711738586,vision
254,2,121,74,1,2663.2251739502,vision
255,2,122,87,3,7159.67297554016,vision
256,2,123,6,3,10975.5010604858,vision
257,2,126,3,3,5072.4790096283,vision
258,2,127,47,2,12125.3309249878,vision
259,2,129,15,3,6924.11589622498,vision
260,2,132,13,1,9624.32193756104,vision
261,2,133,67,1,5787.28795051575,vision
262,2,139,90,1,1273.766040802,vision
263,2,140,96,2,1160.26496887207,vision
264,2,142,150,2,2780.36785125732,vision
265,2,143,73,3,8651.83115005493,vision
266,2,144,121,1,5385.46299934387,vision
267,2,145,72,3,3399.29819107056,vision
268,2,148,35,1,2295.32980918884,vision
269,2,149,31,3,5801.90396308899,vision
270,2,154,62,3,1146.04306221008,vision
271,2,156,50,3,4802.88887023926,vision
272,2,158,10,3,3387.38393783569,vision
273,2,163,44,1,2595.8399772644,vision
274,2,166,106,2,4635.56599617004,vision
275,2,170,2,3,9580.3050994873,vision
276,2,173,81,3,4908.47706794739,vision
277,2,179,79,3,5065.03701210022,vision
278,2,183,95,3,1828.76181602478,vision
279,2,186,53,1,3264.21117782593,vision
280,2,190,32,3,5786.78202629089,vision
281,2,192,4,1,3072.81684875488,vision
282,2,196,144,3,3288.25116157532,vision
283,2,207,51,1,8525.73800086975,vision
284,2,210,120,1,10853.2819747925,vision
285,2,214,146,1,6008.50701332092,vision
286,2,215,23,1,2402.79579162598,vision
287,2,223,43,2,1657.47404098511,vision
288,2,254,28,1,4684.96513366699,vision
289,2,283,40,1,4442.09814071655,vision
290,2,289,12,1,3026.94988250732,vision
291,2,297,113,1,3753.31783294678,vision
292,2,302,94,1,8426.17106437683,vision
293,2,306,127,3,4540.08102416992,vision
294,2,307,122,1,3884.57703590393,vision
295,2,316,107,3,3817.89088249207,vision
296,2,319,141,1,2325.48189163208,vision
297,2,326,45,1,9122.72500991821,vision
298,2,332,133,1,2803.02596092224,vision
299,2,380,21,3,4496.52600288391,vision
300,3,1,42,2,1217.62681007385,vision
301,3,2,114,3,3276.04913711548,vision
302,3,3,1,2,3422.35994338989,vision
303,3,4,3,3,2629.69017028809,vision
304,3,5,49,2,14232.3429584503,vision
305,3,6,75,1,2976.4461517334,vision
306,3,7,69,3,1786.42416000366,vision
307,3,8,101,1,3038.40303421021,vision
308,3,9,138,1,3581.08901977539,vision
309,3,10,102,1,7020.23196220398,vision
310,3,11,66,3,1875.48208236694,vision
311,3,12,134,1,3937.9870891571,vision
312,3,13,108,3,13929.46600914,vision
313,3,14,45,3,1646.16990089417,vision
314,3,15,21,1,1249.06611442566,vision
315,3,16,5,2,8238.76881599426,vision
316,3,17,85,1,11506.4270496368,vision
317,3,18,112,2,3704.31590080261,vision
318,3,19,60,1,848.837852478027,vision
319,3,20,47,1,3505.51295280457,vision
320,3,21,31,2,2673.61402511597,vision
321,3,22,64,2,5127.19011306763,vision
322,3,23,74,3,8567.83390045166,vision
323,3,24,94,3,1284.92093086243,vision
324,3,25,63,2,3867.69509315491,vision
325,3,26,70,3,4954.5590877533,vision
326,3,27,35,3,2667.14692115784,vision
327,3,28,20,2,4472.04303741455,vision
328,3,29,128,2,879.494905471802,vision
329,3,30,95,2,822.638034820557,vision
330,3,31,77,3,6268.60904693604,vision
331,3,32,28,2,1713.57703208923,vision
332,3,33,104,2,922.709941864014,vision
333,3,34,84,1,12776.0920524597,vision
334,3,35,52,1,5837.29577064514,vision
335,3,36,117,3,5235.81409454346,vision
336,3,37,133,1,8224.95412826538,vision
337,3,38,149,1,7169.07596588135,vision
338,3,39,141,2,1028.6180973053,vision
339,3,40,58,1,5179.0189743042,vision
340,3,41,129,3,1705.96599578857,vision
341,3,42,121,2,13722.7368354797,vision
342,3,43,123,3,4958.70208740234,vision
343,3,44,76,3,3159.39593315125,vision
344,3,45,13,1,5776.83901786804,vision
345,3,46,150,3,1343.80221366882,vision
346,3,47,46,3,2001.4591217041,vision
347,3,48,59,3,4882.27796554565,vision
348,3,49,116,3,4337.04996109009,vision
349,3,50,111,2,2953.96995544434,vision
350,3,51,120,1,4128.63993644714,vision
351,3,52,136,3,3510.34998893738,vision
352,3,53,67,2,8712.16988563538,vision
353,3,54,7,3,10360.2259159088,vision
354,3,55,41,3,5353.81317138672,vision
355,3,56,40,2,10390.8038139343,vision
356,3,57,109,3,1373.67010116577,vision
357,3,58,9,2,2250.98299980164,vision
358,3,59,48,3,8389.04094696045,vision
359,3,60,90,3,20331.9380283356,vision
360,3,61,73,3,8848.14691543579,vision
361,3,62,10,1,9949.86081123352,vision
362,3,63,72,2,12208.7659835815,vision
363,3,64,38,3,11395.7331180573,vision
364,3,65,27,1,4031.62908554077,vision
365,3,66,54,3,11220.153093338,vision
366,3,67,43,1,1035.24398803711,vision
367,3,68,92,3,1889.27388191223,vision
368,3,69,57,2,995.723009109497,vision
369,3,70,96,1,1162.88304328918,vision
370,3,71,11,2,11027.074098587,vision
371,3,72,71,1,3935.88495254517,vision
372,3,73,83,3,3944.91910934448,vision
373,3,74,61,3,3856.33707046509,vision
374,3,75,36,1,14522.4449634552,vision
375,3,76,26,1,10720.8251953125,vision
376,3,77,50,3,3556.30016326904,vision
377,3,78,14,1,1725.70204734802,vision
378,3,79,30,3,1880.85389137268,vision
379,3,80,78,2,1515.44618606567,vision
380,3,81,12,3,5765.47789573669,vision
381,3,82,16,2,7266.22986793518,vision
382,3,84,25,1,5679.00609970093,vision
383,3,85,24,1,19905.2679538727,vision
384,3,86,125,3,2999.14717674255,vision
385,3,90,91,3,2769.57416534424,vision
386,3,91,4,3,13912.3678207397,vision
387,3,93,2,2,4486.84501647949,vision
388,3,94,81,1,1285.20584106445,vision
389,3,97,88,1,23539.5169258118,vision
390,3,98,33,3,8724.2910861969,vision
391,3,99,82,1,4929.08501625061,vision
392,3,100,106,3,2089.80107307434,vision
393,3,102,144,1,2433.69007110596,vision
394,3,103,119,1,2846.08006477356,vision
395,3,106,127,3,7438.83299827576,vision
396,3,107,32,1,12225.7490158081,vision
397,3,109,51,3,10586.0230922699,vision
398,3,111,146,1,871.661901473999,vision
399,3,112,39,3,6471.64106369019,vision
400,3,113,103,2,7071.95091247559,vision
401,3,114,110,1,807.133913040161,vision
402,3,115,113,3,8381.37888908386,vision
403,3,118,80,3,2097.92709350586,vision
404,3,121,65,1,3804.85010147095,vision
405,3,122,122,3,1957.73696899414,vision
406,3,123,148,3,12610.4080677032,vision
407,3,126,23,3,5310.35304069519,vision
408,3,127,8,3,6444.79417800903,vision
409,3,129,137,1,9479.01821136475,vision
410,3,132,135,1,4824.19109344482,vision
411,3,133,89,1,6175.56095123291,vision
412,3,139,22,1,1348.46806526184,vision
413,3,140,87,2,2106.75501823425,vision
414,3,142,124,3,7420.86291313171,vision
415,3,143,126,2,7952.11887359619,vision
416,3,144,118,1,2972.29599952698,vision
417,3,145,143,3,13262.3069286346,vision
418,3,148,79,1,2114.45498466492,vision
419,3,149,34,2,9599.42698478699,vision
420,3,154,115,3,944.499015808105,vision
421,3,156,62,2,1019.47402954102,vision
422,3,158,19,3,4705.99102973938,vision
423,3,163,100,1,2877.7768611908,vision
424,3,166,17,3,5197.77607917786,vision
425,3,170,107,3,5398.80204200745,vision
426,3,173,132,3,3604.68721389771,vision
427,3,179,18,1,8370.97096443176,vision
428,3,183,98,3,1091.73703193665,vision
429,3,186,97,1,1988.94000053406,vision
430,3,190,105,2,7493.32714080811,vision
431,3,192,68,1,5465.54589271545,vision
432,3,196,139,3,4190.88888168335,vision
433,3,207,131,1,2583.97197723389,vision
434,3,210,29,1,4171.41509056091,vision
435,3,214,6,1,3616.49918556213,vision
436,3,215,93,1,1526.55100822449,vision
437,3,223,37,1,5881.38604164124,vision
438,3,254,145,1,2784.61503982544,vision
439,3,283,86,1,5728.8498878479,vision
440,3,289,44,1,4715.23499488831,vision
441,3,297,56,1,4497.30396270752,vision
442,3,302,15,1,11598.1459617615,vision
443,3,306,142,3,3220.38507461548,vision
444,3,307,130,1,3663.04206848145,vision
445,3,316,147,3,4151.05199813843,vision
446,3,319,55,1,4446.52605056763,vision
447,3,326,140,1,3230.27896881104,vision
448,3,332,99,1,2491.45698547363,vision
449,3,380,53,1,6911.99398040771,vision
450,4,1,137,2,697.595834732056,vision
451,4,2,17,2,994.888067245483,vision
452,4,3,77,2,497.035980224609,vision
453,4,4,116,3,1083.43601226807,vision
454,4,5,132,3,583.124876022339,vision
455,4,6,56,2,1957.90100097656,vision
456,4,7,41,3,693.786859512329,vision
457,4,8,139,1,2415.90595245361,vision
458,4,9,96,1,650.444984436035,vision
459,4,10,120,2,677.242040634155,vision
460,4,11,23,3,624.114036560059,vision
461,4,12,64,1,964.802980422974,vision
462,4,13,69,1,909.759998321533,vision
463,4,14,123,3,758.6829662323,vision
464,4,15,57,1,889.91904258728,vision
465,4,16,28,1,970.017910003662,vision
466,4,17,91,2,1085.89291572571,vision
467,4,18,112,2,1787.11819648743,vision
468,4,19,8,1,1049.15904998779,vision
469,4,20,84,1,640.795946121216,vision
470,4,21,124,2,888.675928115845,vision
471,4,22,2,2,2214.61606025696,vision
472,4,23,32,3,848.30904006958,vision
473,4,24,90,3,791.157007217407,vision
474,4,25,104,2,607.78284072876,vision
475,4,26,133,3,377.779006958008,vision
476,4,27,36,3,708.325862884521,vision
477,4,28,20,2,1426.98192596436,vision
478,4,29,102,3,1588.08708190918,vision
479,4,30,100,2,746.347904205322,vision
480,4,31,76,2,617.50602722168,vision
481,4,32,58,2,730.719804763794,vision
482,4,33,72,2,567.173004150391,vision
483,4,34,135,1,552.295923233032,vision
484,4,35,86,3,622.720003128052,vision
485,4,36,31,3,2034.43002700806,vision
486,4,37,10,1,2405.8210849762,vision
487,4,38,114,3,1433.58111381531,vision
488,4,39,121,2,1482.24401473999,vision
489,4,40,39,1,1294.77405548096,vision
490,4,41,25,3,1116.09196662903,vision
491,4,42,18,3,1558.13503265381,vision
492,4,43,78,2,591.401100158691,vision
493,4,44,27,3,611.40513420105,vision
494,4,45,37,1,689.887046813965,vision
495,4,46,70,3,678.566932678223,vision
496,4,47,26,2,804.70609664917,vision
497,4,48,49,3,1075.87695121765,vision
498,4,49,43,3,831.078052520752,vision
499,4,50,60,2,2188.73596191406,vision
500,4,51,97,2,825.355052947998,vision
501,4,52,53,3,840.192794799805,vision
502,4,53,59,1,1786.85283660889,vision
503,4,54,127,3,781.778812408447,vision
504,4,55,92,3,923.072099685669,vision
505,4,56,136,3,716.579914093018,vision
506,4,57,118,3,698.119163513184,vision
507,4,58,4,2,1333.61482620239,vision
508,4,59,128,2,713.102102279663,vision
509,4,60,22,3,894.715070724487,vision
510,4,61,143,3,553.877830505371,vision
511,4,62,99,1,1383.18490982056,vision
512,4,63,88,2,2052.70218849182,vision
513,4,64,145,3,578.719854354858,vision
514,4,65,44,1,786.908149719238,vision
515,4,66,146,2,1411.35501861572,vision
516,4,67,117,1,610.351085662842,vision
517,4,68,3,3,4170.96590995789,vision
518,4,69,141,2,632.157802581787,vision
519,4,70,21,1,2258.18610191345,vision
520,4,71,33,2,686.249971389771,vision
521,4,72,66,1,689.188957214355,vision
522,4,73,110,3,759.451866149902,vision
523,4,74,131,2,646.557092666626,vision
524,4,75,19,2,1181.47397041321,vision
525,4,76,34,1,711.667060852051,vision
526,4,77,55,2,1128.47805023193,vision
527,4,78,93,1,993.71600151062,vision
528,4,79,46,3,527.809858322144,vision
529,4,80,74,2,612.19596862793,vision
530,4,81,29,3,615.585088729858,vision
531,4,82,126,3,1385.07795333862,vision
532,4,84,138,2,789.714097976685,vision
533,4,85,111,1,1687.62993812561,vision
534,4,86,42,3,451.69997215271,vision
535,4,90,15,3,1135.50901412964,vision
536,4,91,85,2,709.110021591187,vision
537,4,93,80,2,452.618837356567,vision
538,4,94,68,1,732.78284072876,vision
539,4,97,48,2,1186.77496910095,vision
540,4,98,5,3,4084.05208587646,vision
541,4,99,87,3,592.031002044678,vision
542,4,100,65,3,533.307075500488,vision
543,4,102,83,2,695.044040679932,vision
544,4,103,75,1,1230.48400878906,vision
545,4,106,103,3,640.269994735718,vision
546,4,107,47,2,563.600063323975,vision
547,4,109,122,3,901.371002197266,vision
548,4,111,52,1,3043.89381408691,vision
549,4,112,9,3,1233.61301422119,vision
550,4,113,61,1,1216.27283096313,vision
551,4,114,73,1,742.231845855713,vision
552,4,115,95,3,892.569065093994,vision
553,4,118,149,3,587.699174880981,vision
554,4,121,108,1,619.91286277771,vision
555,4,122,130,3,526.897192001343,vision
556,4,123,101,2,890.027046203613,vision
557,4,126,144,3,772.646903991699,vision
558,4,127,119,3,834.512948989868,vision
559,4,129,51,2,3396.09885215759,vision
560,4,132,16,1,1279.62899208069,vision
561,4,133,98,1,768.84913444519,vision
562,4,139,109,1,888.08798789978,vision
563,4,140,12,2,1396.75307273865,vision
564,4,142,150,3,728.194952011108,vision
565,4,143,67,2,618.177890777588,vision
566,4,144,113,1,2148.42200279236,vision
567,4,145,106,3,644.076824188232,vision
568,4,148,11,1,2475.20399093628,vision
569,4,149,35,3,1161.5879535675,vision
570,4,154,142,3,623.581171035767,vision
571,4,156,79,2,822.589874267578,vision
572,4,158,125,3,813.695192337036,vision
573,4,163,140,1,906.94785118103,vision
574,4,166,13,3,2103.98101806641,vision
575,4,170,7,3,1677.82998085022,vision
576,4,173,115,3,538.491010665894,vision
577,4,179,147,2,1940.65403938293,vision
578,4,183,82,3,948.155164718628,vision
579,4,186,107,1,641.123056411743,vision
580,4,190,38,3,689.071893692017,vision
581,4,192,134,1,724.143981933594,vision
582,4,196,50,3,1940.88792800903,vision
583,4,207,1,1,2906.90684318542,vision
584,4,210,6,1,4937.4520778656,vision
585,4,214,105,1,688.560009002686,vision
586,4,215,14,1,1313.148021698,vision
587,4,223,94,1,1221.72498703003,vision
588,4,254,148,1,1000.51093101501,vision
589,4,283,54,1,1335.89887619019,vision
590,4,289,24,1,709.914207458496,vision
591,4,297,129,1,691.814184188843,vision
592,4,302,62,1,1098.4570980072,vision
593,4,306,71,3,578.498840332031,vision
594,4,307,30,1,488.346099853516,vision
595,4,316,45,3,628.748893737793,vision
596,4,319,40,1,1471.23908996582,vision
597,4,326,89,1,669.092893600464,vision
598,4,332,81,1,622.942924499512,vision
599,4,380,63,3,901.732921600342,vision
600,5,1,146,2,638.213872909546,vision
601,5,2,149,2,641.149044036865,vision
602,5,3,64,2,875.881195068359,vision
603,5,4,33,3,1297.59097099304,vision
604,5,5,147,3,865.900993347168,vision
605,5,6,41,2,1489.56704139709,vision
606,5,7,111,3,1434.00001525879,vision
607,5,8,94,1,1860.42904853821,vision
608,5,9,38,1,801.934957504272,vision
609,5,10,29,2,1056.76507949829,vision
610,5,11,118,3,1152.15110778809,vision
611,5,12,138,1,793.133974075317,vision
612,5,13,106,1,1142.58599281311,vision
613,5,14,122,3,903.580904006958,vision
614,5,15,140,2,980.613946914673,vision
615,5,16,25,2,3468.12200546265,vision
616,5,17,74,2,3002.54702568054,vision
617,5,18,127,1,642.670154571533,vision
618,5,19,18,1,1057.50703811646,vision
619,5,20,80,1,1494.17090415955,vision
620,5,21,19,2,755.427837371826,vision
621,5,22,134,2,1087.50891685486,vision
622,5,23,99,3,1010.0109577179,vision
623,5,24,49,3,974.281787872314,vision
624,5,25,141,2,1063.79079818726,vision
625,5,26,88,3,973.802089691162,vision
626,5,27,75,3,1304.50701713562,vision
627,5,28,26,2,1250.68998336792,vision
628,5,29,117,3,1307.25693702698,vision
629,5,30,110,2,706.575870513916,vision
630,5,31,79,1,3234.26508903503,vision
631,5,32,129,2,585.365056991577,vision
632,5,33,105,2,721.325874328613,vision
633,5,34,6,1,2414.53003883362,vision
634,5,35,112,2,1887.7260684967,vision
635,5,36,5,3,3822.56412506104,vision
636,5,37,108,2,1258.61978530884,vision
637,5,38,57,3,1695.98793983459,vision
638,5,39,121,2,683.105230331421,vision
639,5,40,98,1,984.018087387085,vision
640,5,41,7,3,2203.81689071655,vision
641,5,42,144,3,1185.78195571899,vision
642,5,43,20,1,1897.44591712952,vision
643,5,44,148,3,1285.84408760071,vision
644,5,45,14,2,1212.35203742981,vision
645,5,46,142,3,875.415086746216,vision
646,5,47,139,2,1035.28618812561,vision
647,5,48,78,1,3646.24691009521,vision
648,5,49,27,3,2078.68409156799,vision
649,5,50,17,2,1175.08316040039,vision
650,5,51,54,2,10137.1879577637,vision
651,5,52,135,3,843.26696395874,vision
652,5,53,52,2,1632.12490081787,vision
653,5,54,63,3,1075.91700553894,vision
654,5,55,71,2,1521.93188667297,vision
655,5,56,93,2,1340.46697616577,vision
656,5,57,131,3,697.628021240234,vision
657,5,58,133,2,656.67200088501,vision
658,5,59,16,1,1581.22110366821,vision
659,5,60,76,2,918.330907821655,vision
660,5,61,40,3,1487.18214035034,vision
661,5,62,109,1,1437.35599517822,vision
662,5,63,107,2,2875.25510787964,vision
663,5,64,61,2,1982.3009967804,vision
664,5,65,66,1,1228.84202003479,vision
665,5,66,1,2,5000.727891922,vision
666,5,67,84,1,938.953161239624,vision
667,5,68,46,3,943.789005279541,vision
668,5,69,8,1,1506.44493103027,vision
669,5,70,24,1,959.151029586792,vision
670,5,71,51,2,891.155004501343,vision
671,5,72,145,1,729.077100753784,vision
672,5,73,72,2,1043.39504241943,vision
673,5,74,35,3,1782.53102302551,vision
674,5,75,104,2,798.662185668945,vision
675,5,76,115,1,976.39799118042,vision
676,5,77,15,3,1656.55088424683,vision
677,5,78,32,1,806.143999099731,vision
678,5,79,114,3,940.639019012451,vision
679,5,80,81,2,805.369853973389,vision
680,5,81,103,3,1324.8929977417,vision
681,5,82,91,2,1765.73300361633,vision
682,5,84,12,1,2941.22910499573,vision
683,5,85,22,2,968.590974807739,vision
684,5,86,70,3,1872.18689918518,vision
685,5,90,58,2,1418.60198974609,vision
686,5,91,100,3,1154.1919708252,vision
687,5,93,97,2,1073.05598258972,vision
688,5,94,102,1,1304.35395240784,vision
689,5,97,82,3,2109.60817337036,vision
690,5,98,69,2,3546.85807228088,vision
691,5,99,113,3,5302.62494087219,vision
692,5,100,126,3,750.392913818359,vision
693,5,102,37,2,1145.83587646484,vision
694,5,103,68,1,1289.15405273438,vision
695,5,106,28,3,2487.07818984985,vision
696,5,107,90,3,2597.53799438477,vision
697,5,109,21,3,2555.31096458435,vision
698,5,111,85,1,1061.29598617554,vision
699,5,112,65,3,1284.6360206604,vision
700,5,113,87,2,976.905107498169,vision
701,5,114,123,1,810.163021087646,vision
702,5,115,89,3,3193.96901130676,vision
703,5,118,95,3,1351.99213027954,vision
704,5,121,128,1,800.184011459351,vision
705,5,122,36,3,1127.59304046631,vision
706,5,123,3,1,2685.48893928528,vision
707,5,126,10,3,1443.19295883179,vision
708,5,127,143,3,2784.66415405273,vision
709,5,129,55,1,4469.9170589447,vision
710,5,132,67,1,1463.8888835907,vision
711,5,133,47,1,1043.79987716675,vision
712,5,139,45,1,924.05891418457,vision
713,5,140,11,2,1818.89891624451,vision
714,5,142,92,2,1416.73302650452,vision
715,5,143,96,1,1089.49518203735,vision
716,5,144,62,1,1426.19299888611,vision
717,5,145,101,3,1009.70482826233,vision
718,5,148,136,1,920.512914657593,vision
719,5,149,56,2,1388.75699043274,vision
720,5,154,9,2,1777.78887748718,vision
721,5,156,137,1,1854.84290122986,vision
722,5,158,44,3,917.580842971802,vision
723,5,163,132,1,647.997856140137,vision
724,5,166,42,3,1125.76913833618,vision
725,5,170,120,3,1803.20382118225,vision
726,5,173,124,3,1025.94017982483,vision
727,5,179,48,1,1363.51799964905,vision
728,5,183,83,3,2203.53198051453,vision
729,5,186,30,1,2123.02994728088,vision
730,5,190,2,3,4142.60196685791,vision
731,5,192,13,1,2199.1879940033,vision
732,5,196,59,3,2176.23901367188,vision
733,5,207,50,1,2943.18008422852,vision
734,5,210,116,1,881.49094581604,vision
735,5,214,39,1,1208.80794525146,vision
736,5,215,34,1,951.076984405518,vision
737,5,223,119,1,3506.46901130676,vision
738,5,254,43,1,1427.52695083618,vision
739,5,283,86,2,2125.55980682373,vision
740,5,289,77,1,2052.14500427246,vision
741,5,297,23,1,996.775150299072,vision
742,5,302,31,1,1064.44978713989,vision
743,5,306,4,3,2513.9319896698,vision
744,5,307,60,1,1397.60208129883,vision
745,5,316,130,3,918.128967285156,vision
746,5,319,73,1,1298.2759475708,vision
747,5,326,125,1,1040.80605506897,vision
748,5,332,53,1,944.707870483398,vision
749,5,380,150,3,1252.18605995178,vision
750,6,1,109,2,667.060852050781,vision
751,6,2,35,3,7010.9601020813,vision
752,6,3,87,2,725.516080856323,vision
753,6,4,64,3,1262.75300979614,vision
754,6,5,39,2,4616.82295799255,vision
755,6,6,127,2,3520.30301094055,vision
756,6,7,62,3,1979.5868396759,vision
757,6,8,103,1,4136.50798797607,vision
758,6,9,95,1,2537.18113899231,vision
759,6,10,61,1,1514.55092430115,vision
760,6,11,135,3,953.525066375732,vision
761,6,12,78,1,1206.55393600464,vision
762,6,13,84,1,2407.31501579285,vision
763,6,14,68,3,1733.68096351624,vision
764,6,15,100,1,633.013010025024,vision
765,6,16,75,2,1748.70109558105,vision
766,6,17,72,1,3533.61797332764,vision
767,6,18,49,2,1874.92609024048,vision
768,6,19,112,1,714.114904403687,vision
769,6,20,13,1,1072.69597053528,vision
770,6,21,125,2,772.513866424561,vision
771,6,22,104,3,4155.15494346619,vision
772,6,23,147,3,884.449005126953,vision
773,6,24,128,2,933.806896209717,vision
774,6,25,138,2,7594.80500221252,vision
775,6,26,60,3,1381.3579082489,vision
776,6,27,146,3,1062.26491928101,vision
777,6,28,45,2,1828.15909385681,vision
778,6,29,85,1,2166.62192344666,vision
779,6,30,25,2,962.154865264893,vision
780,6,31,117,1,3953.77707481384,vision
781,6,32,9,2,1409.28387641907,vision
782,6,33,11,2,894.501924514771,vision
783,6,34,89,1,1969.51103210449,vision
784,6,35,20,3,2227.52904891968,vision
785,6,36,118,3,5429.27694320679,vision
786,6,37,41,2,3003.70788574219,vision
787,6,38,53,3,1476.10807418823,vision
788,6,39,48,2,955.665111541748,vision
789,6,40,47,1,1472.00608253479,vision
790,6,41,51,3,2285.12096405029,vision
791,6,42,1,3,3979.76183891296,vision
792,6,43,76,3,1527.78482437134,vision
793,6,44,59,3,1586.64608001709,vision
794,6,45,94,1,4967.59009361267,vision
795,6,46,44,3,1543.99585723877,vision
796,6,47,57,3,2870.8930015564,vision
797,6,48,31,2,3707.19408988953,vision
798,6,49,124,3,2632.85207748413,vision
799,6,50,23,3,2484.90214347839,vision
800,6,51,10,3,2982.44595527649,vision
801,6,52,18,3,1256.2530040741,vision
802,6,53,145,2,862.170934677124,vision
803,6,54,88,3,1447.17001914978,vision
804,6,55,43,2,5286.92102432251,vision
805,6,56,2,2,5127.15888023376,vision
806,6,57,108,3,1253.57294082642,vision
807,6,58,14,2,940.707921981812,vision
808,6,59,114,1,3070.34397125244,vision
809,6,60,131,3,1758.12482833862,vision
810,6,61,143,3,1144.55485343933,vision
811,6,62,116,1,2433.93301963806,vision
812,6,63,130,2,4385.57600975037,vision
813,6,64,102,2,5503.89814376831,vision
814,6,65,22,1,2487.06817626953,vision
815,6,66,63,1,4222.17297554016,vision
816,6,67,99,1,1083.71806144714,vision
817,6,68,129,3,739.223003387451,vision
818,6,69,3,2,1770.30611038208,vision
819,6,70,65,1,2086.77577972412,vision
820,6,71,26,1,2811.79881095886,vision
821,6,72,69,1,1168.781042099,vision
822,6,73,120,3,974.457979202271,vision
823,6,74,33,3,3229.32910919189,vision
824,6,75,16,1,6646.06189727783,vision
825,6,76,106,1,1446.6381072998,vision
826,6,77,34,3,1915.41004180908,vision
827,6,78,134,1,866.56379699707,vision
828,6,79,17,3,1266.65091514587,vision
829,6,80,92,2,690.746068954468,vision
830,6,81,91,3,2190.42682647705,vision
831,6,82,6,2,8572.73387908936,vision
832,6,84,38,1,7825.43683052063,vision
833,6,85,19,1,2263.92483711243,vision
834,6,86,21,1,2313.96794319153,vision
835,6,90,36,3,1667.04511642456,vision
836,6,91,52,3,2923.14696311951,vision
837,6,93,74,2,985.253095626831,vision
838,6,94,97,1,1530.53188323975,vision
839,6,97,126,3,1564.60690498352,vision
840,6,98,8,3,7921.28992080688,vision
841,6,99,98,3,3122.14493751526,vision
842,6,100,50,3,1531.51798248291,vision
843,6,102,54,1,3725.84319114685,vision
844,6,103,5,1,3115.52715301514,vision
845,6,106,148,3,707.226991653442,vision
846,6,107,113,2,2370.7971572876,vision
847,6,109,37,3,1423.83217811584,vision
848,6,111,101,1,891.873121261597,vision
849,6,112,30,3,2035.40301322937,vision
850,6,113,139,2,2671.3080406189,vision
851,6,114,40,2,1166.82314872742,vision
852,6,115,24,3,6311.45000457764,vision
853,6,118,140,3,2612.41412162781,vision
854,6,121,142,1,925.752878189087,vision
855,6,122,80,3,2257.29203224182,vision
856,6,123,123,2,2003.71408462524,vision
857,6,126,67,3,1327.36492156982,vision
858,6,127,4,3,3817.43407249451,vision
859,6,129,93,1,3264.3837928772,vision
860,6,132,121,1,1208.50896835327,vision
861,6,133,105,1,3678.50208282471,vision
862,6,139,77,1,906.703233718872,vision
863,6,140,107,2,794.85297203064,vision
864,6,142,122,2,2225.55088996887,vision
865,6,143,90,1,1677.11997032166,vision
866,6,144,58,1,2697.85904884338,vision
867,6,145,111,3,1009.24110412598,vision
868,6,148,115,1,1046.59008979797,vision
869,6,149,71,2,2331.51698112488,vision
870,6,154,73,3,1348.42205047607,vision
871,6,156,83,1,4437.26515769958,vision
872,6,158,119,3,2401.44419670105,vision
873,6,163,136,1,882.582902908325,vision
874,6,166,96,3,1123.39210510254,vision
875,6,170,141,3,1350.2881526947,vision
876,6,173,86,3,2533.57195854187,vision
877,6,179,150,1,836.222171783447,vision
878,6,183,149,3,1085.94489097595,vision
879,6,186,42,1,2565.31000137329,vision
880,6,190,132,3,1382.61198997498,vision
881,6,192,133,2,1308.70795249939,vision
882,6,196,144,3,794.130086898804,vision
883,6,207,137,1,808.465003967285,vision
884,6,210,29,1,3300.12607574463,vision
885,6,214,66,1,1379.63700294495,vision
886,6,215,81,1,1128.31115722656,vision
887,6,223,55,1,3074.11599159241,vision
888,6,254,46,1,2635.46514511108,vision
889,6,283,70,1,1364.10617828369,vision
890,6,289,82,1,2135.80203056335,vision
891,6,297,12,1,1459.52796936035,vision
892,6,302,27,1,2279.74510192871,vision
893,6,306,32,3,1166.12911224365,vision
894,6,307,56,1,3080.55400848389,vision
895,6,316,110,3,1000.94985961914,vision
896,6,319,79,1,2943.75586509705,vision
897,6,326,15,1,2374.0451335907,vision
898,6,332,7,1,2480.11803627014,vision
899,6,380,28,3,3364.85600471497,vision
900,7,1,45,2,1098.11401367188,vision
901,7,2,51,3,2702.21400260925,vision
902,7,3,120,2,761.58595085144,vision
903,7,4,107,3,2015.80405235291,vision
904,7,5,82,2,2462.73994445801,vision
905,7,6,34,2,10602.6389598846,vision
906,7,7,42,3,2596.34113311768,vision
907,7,8,68,1,3564.97502326965,vision
908,7,9,127,1,904.011964797974,vision
909,7,10,95,2,1015.5189037323,vision
910,7,11,40,3,1338.59205245972,vision
911,7,12,65,1,1054.49914932251,vision
912,7,13,57,2,4709.92112159729,vision
913,7,14,63,3,2801.95093154907,vision
914,7,15,85,1,959.47003364563,vision
915,7,16,105,1,1442.39187240601,vision
916,7,17,104,2,5754.22406196594,vision
917,7,18,133,2,2720.09706497192,vision
918,7,19,38,1,1112.19310760498,vision
919,7,20,20,1,1253.68285179138,vision
920,7,21,49,2,1123.28505516052,vision
921,7,22,146,2,2172.63603210449,vision
922,7,23,52,3,1557.84797668457,vision
923,7,24,76,3,1407.30714797974,vision
924,7,25,102,1,3077.08597183228,vision
925,7,26,100,3,1341.91918373108,vision
926,7,27,62,3,1211.85898780823,vision
927,7,28,97,2,6222.34582901001,vision
928,7,29,116,1,7431.2219619751,vision
929,7,30,66,2,1122.49302864075,vision
930,7,31,6,3,8276.2668132782,vision
931,7,32,5,2,1247.7011680603,vision
932,7,33,37,2,823.585987091064,vision
933,7,34,114,1,1040.83704948425,vision
934,7,35,84,3,8698.40812683105,vision
935,7,36,140,3,1313.84611129761,vision
936,7,37,48,1,12978.3952236176,vision
937,7,38,33,2,1067.02280044556,vision
938,7,39,15,2,922.223806381226,vision
939,7,40,47,1,1259.88292694092,vision
940,7,41,136,2,807.943105697632,vision
941,7,42,147,3,1004.29892539978,vision
942,7,43,25,3,18176.7230033875,vision
943,7,44,7,3,6084.02895927429,vision
944,7,45,138,1,822.189092636108,vision
945,7,46,22,3,1286.94701194763,vision
946,7,47,122,2,1636.57212257385,vision
947,7,48,73,3,4232.16795921326,vision
948,7,49,26,3,2337.50200271606,vision
949,7,50,115,2,2379.53996658325,vision
950,7,51,10,1,11108.0870628357,vision
951,7,52,113,3,2065.12904167175,vision
952,7,53,92,3,2397.29905128479,vision
953,7,54,130,3,2784.70587730408,vision
954,7,55,135,2,1029.65116500854,vision
955,7,56,118,2,3477.28610038757,vision
956,7,57,58,2,4773.32401275635,vision
957,7,58,124,2,753.516912460327,vision
958,7,59,14,3,2428.75504493713,vision
959,7,60,121,3,1481.66298866272,vision
960,7,61,72,3,1714.7068977356,vision
961,7,62,56,1,2045.27711868286,vision
962,7,63,64,2,6112.50591278076,vision
963,7,64,70,2,5634.64713096619,vision
964,7,65,27,1,1757.21096992493,vision
965,7,66,132,1,831.219911575317,vision
966,7,67,106,1,1045.73011398315,vision
967,7,68,149,3,895.530939102173,vision
968,7,69,32,2,839.537858963013,vision
969,7,70,94,1,877.23183631897,vision
970,7,71,110,2,2279.34598922729,vision
971,7,72,83,1,1188.6739730835,vision
972,7,73,53,3,1889.83702659607,vision
973,7,74,54,3,8805.96089363098,vision
974,7,75,11,2,8265.60306549072,vision
975,7,76,30,1,2743.24703216553,vision
976,7,77,39,3,1503.6289691925,vision
977,7,78,144,1,713.603019714355,vision
978,7,79,16,3,5624.19104576111,vision
979,7,80,142,2,702.564001083374,vision
980,7,81,129,3,1429.40616607666,vision
981,7,82,134,2,2700.31404495239,vision
982,7,84,50,1,10697.0248222351,vision
983,7,85,77,2,4826.22504234314,vision
984,7,86,89,3,2136.5327835083,vision
985,7,90,36,3,2479.67100143433,vision
986,7,91,12,3,11677.6969432831,vision
987,7,93,128,2,814.022064208984,vision
988,7,94,93,1,1262.93087005615,vision
989,7,97,44,3,4751.72901153564,vision
990,7,98,111,2,4372.95079231262,vision
991,7,99,145,3,1653.91707420349,vision
992,7,100,23,3,1630.97095489502,vision
993,7,102,74,1,3274.50299263,vision
994,7,103,24,1,2975.00586509705,vision
995,7,106,21,3,4631.58202171326,vision
996,7,107,60,3,4466.08018875122,vision
997,7,109,87,3,2060.64701080322,vision
998,7,111,13,1,4972.54109382629,vision
999,7,112,71,3,1967.11707115173,vision
1000,7,113,1,2,5710.82806587219,vision
1001,7,114,91,1,1356.52208328247,vision
1002,7,115,112,3,5760.586977005,vision
1003,7,118,117,3,3070.18804550171,vision
1004,7,121,109,1,1608.7498664856,vision
1005,7,122,43,3,1129.65393066406,vision
1006,7,123,90,1,1577.28481292725,vision
1007,7,126,8,3,2462.562084198,vision
1008,7,127,80,3,3296.05507850647,vision
1009,7,129,98,2,5227.46610641479,vision
1010,7,132,79,1,719.295978546143,vision
1011,7,133,148,1,812.918901443481,vision
1012,7,139,67,1,4395.62010765076,vision
1013,7,140,75,2,832.410097122192,vision
1014,7,142,61,2,4067.54207611084,vision
1015,7,143,88,1,1911.57078742981,vision
1016,7,144,3,1,6021.83103561401,vision
1017,7,145,18,3,4352.71000862122,vision
1018,7,148,99,1,2675.18401145935,vision
1019,7,149,41,2,2614.52603340149,vision
1020,7,154,150,3,865.204811096191,vision
1021,7,156,137,1,2014.2560005188,vision
1022,7,158,4,3,3600.73900222778,vision
1023,7,163,103,1,1040.8251285553,vision
1024,7,166,69,2,2454.52690124512,vision
1025,7,170,139,3,1581.46595954895,vision
1026,7,173,17,3,2158.68091583252,vision
1027,7,179,131,1,785.760164260864,vision
1028,7,183,143,3,1053.56311798096,vision
1029,7,186,123,1,874.053001403809,vision
1030,7,190,119,3,1526.18980407715,vision
1031,7,192,2,1,13625.8280277252,vision
1032,7,196,81,3,2036.8959903717,vision
1033,7,207,141,1,2668.70999336243,vision
1034,7,210,28,1,2474.88784790039,vision
1035,7,214,29,1,1084.11502838135,vision
1036,7,215,35,1,1401.20887756348,vision
1037,7,223,59,1,3291.91493988037,vision
1038,7,254,46,1,1740.61799049377,vision
1039,7,283,126,1,688.112020492554,vision
1040,7,289,101,1,1301.29599571228,vision
1041,7,297,96,1,811.736106872559,vision
1042,7,302,78,1,1338.59395980835,vision
1043,7,306,125,3,936.431169509888,vision
1044,7,307,9,1,6444.98586654663,vision
1045,7,316,19,3,2657.10186958313,vision
1046,7,319,55,1,1158.30707550049,vision
1047,7,326,86,1,1173.98405075073,vision
1048,7,332,108,1,1343.61505508423,vision
1049,7,380,31,3,6546.56100273132,vision
1050,8,1,61,2,1297.49608039856,vision
1051,8,2,127,2,1570.57595252991,vision
1052,8,3,26,2,1183.69603157043,vision
1053,8,4,150,3,1055.61995506287,vision
1054,8,5,10,3,18828.2649517059,vision
1055,8,6,98,1,12378.7798881531,vision
1056,8,7,149,3,3366.82391166687,vision
1057,8,8,6,2,9200.32978057861,vision
1058,8,9,132,1,1011.9161605835,vision
1059,8,10,120,1,1818.97115707397,vision
1060,8,11,112,3,2548.66099357605,vision
1061,8,12,70,1,2106.13989830017,vision
1062,8,13,2,2,14441.3502216339,vision
1063,8,14,34,3,5252.23779678345,vision
1064,8,15,47,1,1070.21284103394,vision
1065,8,16,38,1,1058.09998512268,vision
1066,8,17,40,3,2095.65210342407,vision
1067,8,18,25,2,7016.62492752075,vision
1068,8,19,17,1,1287.61696815491,vision
1069,8,20,107,1,900.806188583374,vision
1070,8,21,45,2,1387.27903366089,vision
1071,8,22,24,2,5617.78593063354,vision
1072,8,23,11,3,2748.3811378479,vision
1073,8,24,102,3,1899.00588989258,vision
1074,8,25,43,1,1424.79395866394,vision
1075,8,26,44,3,959.573030471802,vision
1076,8,27,148,3,1332.36694335938,vision
1077,8,28,126,2,5665.86709022522,vision
1078,8,29,125,3,10527.9211997986,vision
1079,8,30,99,2,1743.83616447449,vision
1080,8,31,27,3,6348.79398345947,vision
1081,8,32,1,2,4015.65098762512,vision
1082,8,33,137,2,991.928100585938,vision
1083,8,34,105,1,1705.66701889038,vision
1084,8,35,60,1,11619.3211078644,vision
1085,8,36,144,3,17211.6351127625,vision
1086,8,37,147,1,3665.76385498047,vision
1087,8,38,7,3,1603.0809879303,vision
1088,8,39,30,2,1486.43398284912,vision
1089,8,40,82,2,82.7059745788574,vision
1090,8,41,119,3,2213.52505683899,vision
1091,8,42,113,3,1355.5850982666,vision
1092,8,43,90,3,9009.67597961426,vision
1093,8,44,67,3,4549.67212677002,vision
1094,8,45,13,1,1680.90987205505,vision
1095,8,46,73,3,1118.53003501892,vision
1096,8,47,42,3,9519.14715766907,vision
1097,8,48,21,3,4807.07311630249,vision
1098,8,49,75,3,2196.79188728333,vision
1099,8,50,63,2,5318.48978996277,vision
1100,8,51,28,1,13854.5470237732,vision
1101,8,52,116,3,3141.99805259705,vision
1102,8,53,141,1,12742.812871933,vision
1103,8,54,84,2,6610.35203933716,vision
1104,8,55,136,3,11387.4478340149,vision
1105,8,56,91,2,6363.02185058594,vision
1106,8,57,85,3,1199.26905632019,vision
1107,8,58,66,2,868.978977203369,vision
1108,8,59,128,3,8609.94696617126,vision
1109,8,60,81,3,1434.17596817017,vision
1110,8,61,78,3,4397.61209487915,vision
1111,8,62,36,1,5919.39187049866,vision
1112,8,63,56,1,22224.632024765,vision
1113,8,64,140,2,6282.50002861023,vision
1114,8,65,130,1,4112.88094520569,vision
1115,8,66,51,2,12136.4078521729,vision
1116,8,67,62,1,878.627061843872,vision
1117,8,68,32,3,1404.2489528656,vision
1118,8,69,16,2,1315.70792198181,vision
1119,8,70,65,1,2889.86706733704,vision
1120,8,71,133,1,13210.7839584351,vision
1121,8,72,96,1,929.72207069397,vision
1122,8,73,88,3,1222.73683547974,vision
1123,8,74,39,3,4239.03703689575,vision
1124,8,75,59,2,21299.252986908,vision
1125,8,76,121,1,1989.30406570435,vision
1126,8,77,142,3,1338.29689025879,vision
1127,8,78,49,1,1022.10187911987,vision
1128,8,79,94,3,1117.34390258789,vision
1129,8,80,139,2,696.923017501831,vision
1130,8,81,46,3,3299.44109916687,vision
1131,8,82,77,2,7658.23793411255,vision
1132,8,84,92,2,12073.6501216888,vision
1133,8,85,18,2,8752.84099578857,vision
1134,8,86,117,3,14671.7500686646,vision
1135,8,90,31,3,4082.06796646118,vision
1136,8,91,29,3,2748.48699569702,vision
1137,8,93,106,2,1113.21711540222,vision
1138,8,94,12,2,14253.7000179291,vision
1139,8,97,50,3,3966.9451713562,vision
1140,8,98,69,2,6379.31418418884,vision
1141,8,99,76,3,7288.00892829895,vision
1142,8,100,95,3,2215.18802642822,vision
1143,8,102,114,1,3784.90686416626,vision
1144,8,103,72,1,6523.22793006897,vision
1145,8,106,143,3,3269.49715614319,vision
1146,8,107,53,3,10953.243970871,vision
1147,8,109,15,3,10164.402961731,vision
1148,8,111,41,1,2418.93100738525,vision
1149,8,112,115,1,3710.90006828308,vision
1150,8,113,129,2,2636.71684265137,vision
1151,8,114,58,1,929.137945175171,vision
1152,8,115,74,2,7844.58494186401,vision
1153,8,118,104,3,4940.31596183777,vision
1154,8,121,37,1,1137.7329826355,vision
1155,8,122,131,3,1781.96692466736,vision
1156,8,123,93,1,3799.52597618103,vision
1157,8,126,54,3,2205.24120330811,vision
1158,8,127,4,3,5359.36903953552,vision
1159,8,129,57,1,23756.9019794464,vision
1160,8,132,108,1,1911.04507446289,vision
1161,8,133,138,1,3010.75506210327,vision
1162,8,139,5,1,2171.36907577515,vision
1163,8,140,64,2,899.091005325317,vision
1164,8,142,3,3,16122.1349239349,vision
1165,8,143,146,1,2186.08808517456,vision
1166,8,144,35,1,2710.40010452271,vision
1167,8,145,9,3,1551.97501182556,vision
1168,8,148,19,1,1074.48887825012,vision
1169,8,149,20,3,11490.0720119476,vision
1170,8,154,68,3,1155.74502944946,vision
1171,8,156,100,1,1755.5570602417,vision
1172,8,158,123,3,3795.86005210876,vision
1173,8,163,103,1,2559.67998504639,vision
1174,8,166,86,3,7753.85618209839,vision
1175,8,170,8,3,3611.72008514404,vision
1176,8,173,52,3,3361.7000579834,vision
1177,8,179,80,1,11158.7538719177,vision
1178,8,183,89,3,1114.44497108459,vision
1179,8,186,134,1,3060.07099151611,vision
1180,8,190,14,3,3196.41494750977,vision
1181,8,192,83,1,4481.29916191101,vision
1182,8,196,33,3,9707.20314979553,vision
1183,8,207,97,1,3880.16581535339,vision
1184,8,210,87,1,1245.61500549316,vision
1185,8,214,55,1,2582.85999298096,vision
1186,8,215,122,1,1109.73811149597,vision
1187,8,223,22,2,21025.2640247345,vision
1188,8,254,118,1,2985.47101020813,vision
1189,8,283,110,1,8128.70121002197,vision
1190,8,289,48,2,4889.93787765503,vision
1191,8,297,145,1,1224.85995292664,vision
1192,8,302,124,1,5026.55911445618,vision
1193,8,306,111,3,1337.28384971619,vision
1194,8,307,109,1,2695.62482833862,vision
1195,8,316,71,3,10173.2912063599,vision
1196,8,319,101,1,13144.3448066711,vision
1197,8,326,79,1,4293.93601417542,vision
1198,8,332,135,1,978.773832321167,vision
1199,8,380,23,3,3084.03706550598,vision
1200,9,1,115,2,2783.0970287323,vision
1201,9,2,7,3,8183.18796157837,vision
1202,9,3,110,1,6818.74704360962,vision
1203,9,4,21,2,2028.68008613586,vision
1204,9,5,24,2,4433.12191963196,vision
1205,9,6,40,2,4644.29783821106,vision
1206,9,7,27,3,5288.30790519714,vision
1207,9,8,132,1,2581.54201507568,vision
1208,9,9,59,1,2259.05799865723,vision
1209,9,10,138,1,3230.47280311584,vision
1210,9,11,10,3,2953.74584197998,vision
1211,9,12,55,1,1644.08898353577,vision
1212,9,13,25,2,3965.06905555725,vision
1213,9,14,103,3,2066.05911254883,vision
1214,9,15,62,1,2790.89403152466,vision
1215,9,16,18,2,1748.06094169617,vision
1216,9,17,36,1,5485.96000671387,vision
1217,9,18,135,2,2946.35415077209,vision
1218,9,19,111,2,4183.08901786804,vision
1219,9,20,42,1,3513.31901550293,vision
1220,9,21,90,2,8455.61099052429,vision
1221,9,22,97,2,2024.79410171509,vision
1222,9,23,143,3,2404.91318702698,vision
1223,9,24,30,2,3509.59014892578,vision
1224,9,25,63,3,3225.36993026733,vision
1225,9,26,99,2,2624.29308891296,vision
1226,9,27,9,2,2166.3818359375,vision
1227,9,28,126,2,7435.59885025024,vision
1228,9,29,74,2,6740.71216583252,vision
1229,9,30,67,1,2088.20700645447,vision
1230,9,31,131,2,2817.98982620239,vision
1231,9,32,94,1,6078.42111587524,vision
1232,9,33,150,2,6491.0900592804,vision
1233,9,34,81,1,4366.90592765808,vision
1234,9,35,140,2,2153.07211875916,vision
1235,9,36,105,2,4894.41800117493,vision
1236,9,37,15,2,1351.13000869751,vision
1237,9,38,51,3,5545.47786712646,vision
1238,9,39,56,2,10792.5801277161,vision
1239,9,40,8,1,3369.07696723938,vision
1240,9,41,57,3,3267.40694046021,vision
1241,9,42,53,2,3113.6908531189,vision
1242,9,43,117,3,5811.46311759949,vision
1243,9,44,84,3,5171.90384864807,vision
1244,9,45,5,1,1850.83413124084,vision
1245,9,46,96,3,4838.19794654846,vision
1246,9,47,147,3,1749.23777580261,vision
1247,9,48,46,2,3380.98788261414,vision
1248,9,49,124,3,5220.42202949524,vision
1249,9,50,136,2,1664.36100006104,vision
1250,9,51,86,2,6111.93203926086,vision
1251,9,52,137,3,2421.34499549866,vision
1252,9,53,23,2,3965.32201766968,vision
1253,9,54,73,3,2267.07005500793,vision
1254,9,55,78,3,4175.07982254028,vision
1255,9,56,100,3,5755.22112846375,vision
1256,9,57,142,2,3126.54709815979,vision
1257,9,58,70,3,5921.8008518219,vision
1258,9,59,109,1,3451.13086700439,vision
1259,9,60,12,3,1659.32297706604,vision
1260,9,61,130,3,4397.4609375,vision
1261,9,62,133,1,2346.54402732849,vision
1262,9,63,32,1,4077.28004455566,vision
1263,9,64,119,2,3693.25399398804,vision
1264,9,65,145,1,2066.23411178589,vision
1265,9,66,93,1,2647.94492721558,vision
1266,9,67,77,2,1415.61913490295,vision
1267,9,68,122,3,8331.86006546021,vision
1268,9,69,4,3,3787.02092170715,vision
1269,9,70,66,1,4504.54306602478,vision
1270,9,71,127,1,9590.6081199646,vision
1271,9,72,98,1,5790.57002067566,vision
1272,9,73,28,2,5716.961145401,vision
1273,9,74,29,2,2184.21196937561,vision
1274,9,75,6,2,2704.61916923523,vision
1275,9,76,72,3,2629.51803207397,vision
1276,9,77,134,2,2542.39797592163,vision
1277,9,78,112,2,1458.79483222961,vision
1278,9,79,108,2,1969.21300888062,vision
1279,9,80,60,3,2801.46503448486,vision
1280,9,81,83,3,3215.40999412537,vision
1281,9,82,149,2,6037.47415542603,vision
1282,9,84,54,1,3482.43594169617,vision
1283,9,85,80,1,5579.38289642334,vision
1284,9,86,102,3,7196.66504859924,vision
1285,9,90,61,3,4652.16398239136,vision
1286,9,91,49,3,5545.18294334412,vision
1287,9,93,45,2,6568.79806518555,vision
1288,9,94,121,1,3895.07102966309,vision
1289,9,97,123,3,3745.22805213928,vision
1290,9,98,65,2,1771.7170715332,vision
1291,9,99,31,3,3643.43309402466,vision
1292,9,100,47,3,1933.22992324829,vision
1293,9,102,50,1,2902.46987342834,vision
1294,9,103,44,1,1238.23404312134,vision
1295,9,106,52,3,6693.75014305115,vision
1296,9,107,104,1,3916.13006591797,vision
1297,9,109,16,3,2044.13294792175,vision
1298,9,111,75,2,2793.20502281189,vision
1299,9,112,69,3,3461.19999885559,vision
1300,9,113,148,2,3978.03282737732,vision
1301,9,114,91,1,5115.47303199768,vision
1302,9,115,39,3,14108.5019111633,vision
1303,9,118,146,3,3150.98404884338,vision
1304,9,121,88,1,5547.87015914917,vision
1305,9,122,141,3,2148.22196960449,vision
1306,9,123,33,2,2868.68095397949,vision
1307,9,126,3,3,2485.46290397644,vision
1308,9,127,92,2,5679.37111854553,vision
1309,9,129,34,1,3676.21898651123,vision
1310,9,132,89,2,4357.92708396912,vision
1311,9,133,116,2,3887.05396652222,vision
1312,9,139,1,2,3009.16314125061,vision
1313,9,140,37,2,4622.9841709137,vision
1314,9,142,87,3,7082.72004127502,vision
1315,9,143,120,3,9565.21105766296,vision
1316,9,144,107,1,4636.89804077148,vision
1317,9,145,35,2,7639.94407653809,vision
1318,9,148,118,1,5232.62000083923,vision
1319,9,149,106,2,1189.24498558044,vision
1320,9,154,48,2,6213.41490745544,vision
1321,9,156,11,3,4687.93392181396,vision
1322,9,158,129,3,3191.41411781311,vision
1323,9,163,113,1,5472.88608551025,vision
1324,9,166,139,2,2001.23405456543,vision
1325,9,170,144,3,2637.59088516235,vision
1326,9,173,17,3,2323.59600067139,vision
1327,9,179,43,1,4480.84092140198,vision
1328,9,183,128,2,3943.84098052979,vision
1329,9,186,20,1,2887.4249458313,vision
1330,9,190,85,2,4512.79497146606,vision
1331,9,192,38,1,1517.54903793335,vision
1332,9,196,79,3,5437.18004226685,vision
1333,9,207,76,1,9551.11122131348,vision
1334,9,210,2,1,3332.33118057251,vision
1335,9,214,114,1,3681.96201324463,vision
1336,9,215,82,1,5097.41497039795,vision
1337,9,223,64,2,4433.97188186646,vision
1338,9,254,22,1,3833.40811729431,vision
1339,9,283,26,1,1580.59501647949,vision
1340,9,289,41,1,4382.04503059387,vision
1341,9,297,58,1,3462.39900588989,vision
1342,9,302,71,1,6951.11989974976,vision
1343,9,306,101,3,1481.04190826416,vision
1344,9,307,19,1,3429.31699752808,vision
1345,9,316,68,3,5453.47380638123,vision
1346,9,319,125,1,9050.8439540863,vision
1347,9,326,13,1,2999.33409690857,vision
1348,9,332,14,1,2318.11618804932,vision
1349,9,380,95,3,5052.32214927673,vision
1350,10,1,51,2,9828.60589027405,vision
1351,10,2,61,2,2698.95386695862,vision
1352,10,3,56,2,2858.19911956787,vision
1353,10,4,8,2,20511.8088722229,vision
1354,10,5,124,3,2614.42518234253,vision
1355,10,6,15,2,10653.1162261963,vision
1356,10,7,118,2,3924.04198646545,vision
1357,10,8,89,2,3984.65609550476,vision
1358,10,9,37,1,1759.33003425598,vision
1359,10,10,60,2,4114.28093910217,vision
1360,10,11,99,3,1693.14098358154,vision
1361,10,12,138,1,1986.6771697998,vision
1362,10,13,117,1,3493.96085739136,vision
1363,10,14,38,3,4457.66592025757,vision
1364,10,15,29,1,2178.2078742981,vision
1365,10,16,104,1,1077.7690410614,vision
1366,10,17,122,2,1924.14712905884,vision
1367,10,18,33,1,1358.07609558105,vision
1368,10,19,145,1,3020.26891708374,vision
1369,10,20,10,1,6642.42887496948,vision
1370,10,21,150,2,3106.58407211304,vision
1371,10,22,136,2,4616.13893508911,vision
1372,10,23,93,3,2008.52608680725,vision
1373,10,24,90,3,1351.54390335083,vision
1374,10,25,100,1,2808.35008621216,vision
1375,10,26,123,3,980.442047119141,vision
1376,10,27,62,2,7113.46292495728,vision
1377,10,28,88,3,1721.37999534607,vision
1378,10,29,9,3,3394.03796195984,vision
1379,10,30,109,2,1732.56492614746,vision
1380,10,31,143,2,3268.10002326965,vision
1381,10,32,44,2,3346.65989875793,vision
1382,10,33,116,2,3170.08399963379,vision
1383,10,34,77,1,3501.41191482544,vision
1384,10,35,96,3,2097.76711463928,vision
1385,10,36,58,2,4336.81106567383,vision
1386,10,37,43,1,6965.38615226746,vision
1387,10,38,134,3,3784.56902503967,vision
1388,10,39,112,2,1254.56809997559,vision
1389,10,40,98,1,5178.83205413818,vision
1390,10,41,148,3,4278.11193466187,vision
1391,10,42,1,2,5673.07901382446,vision
1392,10,43,34,3,6191.02215766907,vision
1393,10,44,144,3,4004.32991981506,vision
1394,10,45,140,1,3433.39991569519,vision
1395,10,46,4,3,5217.93389320374,vision
1396,10,47,53,2,6763.4699344635,vision
1397,10,48,23,1,6944.23007965088,vision
1398,10,49,3,2,9183.39204788208,vision
1399,10,50,130,2,2854.82001304626,vision
1400,10,51,135,2,2378.18908691406,vision
1401,10,52,120,3,3064.33391571045,vision
1402,10,53,20,2,3237.15686798096,vision
1403,10,54,32,3,1812.05701828003,vision
1404,10,55,36,3,12345.4229831696,vision
1405,10,56,18,2,9316.81180000305,vision
1406,10,57,121,3,2228.21712493896,vision
1407,10,58,50,2,6887.71200180054,vision
1408,10,59,6,1,27801.6729354858,vision
1409,10,60,16,3,2485.36992073059,vision
1410,10,61,80,2,4448.12393188477,vision
1411,10,62,12,3,9365.59104919434,vision
1412,10,63,115,2,3604.09903526306,vision
1413,10,64,21,3,1870.3830242157,vision
1414,10,65,131,1,1636.39903068542,vision
1415,10,66,75,2,5009.97996330261,vision
1416,10,67,82,1,1148.86903762817,vision
1417,10,68,30,3,1393.23306083679,vision
1418,10,69,105,2,1135.62798500061,vision
1419,10,70,26,1,4187.35694885254,vision
1420,10,71,70,3,7465.16585350037,vision
1421,10,72,128,1,1649.71303939819,vision
1422,10,73,139,3,3640.19393920898,vision
1423,10,74,137,3,4789.40010070801,vision
1424,10,75,59,2,4477.35190391541,vision
1425,10,76,79,1,2651.18598937988,vision
1426,10,77,147,3,3321.13218307495,vision
1427,10,78,69,1,1921.1790561676,vision
1428,10,79,17,3,2895.99800109863,vision
1429,10,80,102,2,5194.34094429016,vision
1430,10,81,24,3,1804.35490608215,vision
1431,10,82,87,2,5030.22480010986,vision
1432,10,84,76,2,4310.39309501648,vision
1433,10,85,7,1,6904.66904640198,vision
1434,10,86,47,2,4200.92988014221,vision
1435,10,90,19,3,6316.6298866272,vision
1436,10,91,132,2,3036.87596321106,vision
1437,10,93,106,2,1920.83311080933,vision
1438,10,94,146,2,14717.2079086304,vision
1439,10,97,27,3,4262.60805130005,vision
1440,10,98,42,2,5300.80795288086,vision
1441,10,99,92,3,3683.23612213135,vision
1442,10,100,52,3,3945.0478553772,vision
1443,10,102,142,1,7934.64779853821,vision
1444,10,103,14,2,2388.86284828186,vision
1445,10,106,54,2,3109.36903953552,vision
1446,10,107,66,2,3929.13889884949,vision
1447,10,109,65,2,3230.76200485229,vision
1448,10,111,39,2,4513.96918296814,vision
1449,10,112,13,2,10142.0052051544,vision
1450,10,113,46,2,5678.04718017578,vision
1451,10,114,83,1,1614.57681655884,vision
1452,10,115,72,2,2853.84392738342,vision
1453,10,118,5,2,10578.8390636444,vision
1454,10,121,25,1,11543.8621044159,vision
1455,10,122,108,3,1745.99289894104,vision
1456,10,123,81,2,6026.53193473816,vision
1457,10,126,49,3,1789.24798965454,vision
1458,10,127,119,3,3807.19590187073,vision
1459,10,129,31,2,6443.24398040771,vision
1460,10,132,91,1,3821.14505767822,vision
1461,10,133,129,1,3087.1889591217,vision
1462,10,139,55,1,1998.93498420715,vision
1463,10,140,71,1,1940.16480445862,vision
1464,10,142,67,2,3517.15993881226,vision
1465,10,143,107,1,6096.92311286926,vision
1466,10,144,35,1,3804.30793762207,vision
1467,10,145,40,2,6666.32485389709,vision
1468,10,148,113,1,4189.85891342163,vision
1469,10,149,48,2,3538.49983215332,vision
1470,10,154,45,3,2044.37112808228,vision
1471,10,156,22,2,4912.34683990479,vision
1472,10,158,78,3,3723.38700294495,vision
1473,10,163,101,1,5592.3490524292,vision
1474,10,166,94,2,9153.29909324646,vision
1475,10,170,149,3,1816.78915023804,vision
1476,10,173,63,2,11407.1490764618,vision
1477,10,179,110,1,6716.79019927979,vision
1478,10,183,74,3,2140.54203033447,vision
1479,10,186,84,3,4552.22797393799,vision
1480,10,190,127,3,1405.23505210876,vision
1481,10,192,73,3,13971.0931777954,vision
1482,10,196,141,3,2129.17017936707,vision
1483,10,207,125,2,9626.31106376648,vision
1484,10,210,126,1,1443.17889213562,vision
1485,10,214,11,1,11756.982088089,vision
1486,10,215,28,1,5985.31198501587,vision
1487,10,223,111,1,5788.69700431824,vision
1488,10,254,97,2,5839.6201133728,vision
1489,10,283,64,3,4760.86211204529,vision
1490,10,289,68,1,2758.53800773621,vision
1491,10,297,86,1,2456.37893676758,vision
1492,10,302,133,1,4757.00306892395,vision
1493,10,306,57,3,13187.1290206909,vision
1494,10,307,85,1,4366.50681495667,vision
1495,10,316,95,3,4515.7630443573,vision
1496,10,319,41,1,15286.0369682312,vision
1497,10,326,103,1,1642.04001426697,vision
1498,10,332,114,1,1971.5940952301,vision
1499,10,380,2,3,7863.7490272522,vision
1500,11,1,137,2,885.348796844482,vision
1501,11,2,15,2,2719.97499465942,vision
1502,11,3,65,2,806.926012039185,vision
1503,11,4,50,2,2340.9059047699,vision
1504,11,5,72,3,5483.16478729248,vision
1505,11,6,55,1,9707.15117454529,vision
1506,11,7,28,3,6684.29493904114,vision
1507,11,8,30,2,2078.88221740723,vision
1508,11,9,141,1,1229.20107841492,vision
1509,11,10,86,1,1715.00778198242,vision
1510,11,11,144,3,2808.92705917358,vision
1511,11,12,109,1,2180.51409721375,vision
1512,11,13,88,2,5801.31602287292,vision
1513,11,14,4,3,2869.21501159668,vision
1514,11,15,143,1,4533.59794616699,vision
1515,11,16,126,2,3479.90894317627,vision
1516,11,17,69,2,1515.2690410614,vision
1517,11,18,149,2,5283.38408470154,vision
1518,11,19,117,2,1968.67203712463,vision
1519,11,20,108,1,1585.48283576965,vision
1520,11,21,85,2,810.979127883911,vision
1521,11,22,31,3,11262.65001297,vision
1522,11,23,99,3,3652.09913253784,vision
1523,11,24,7,3,3928.4679889679,vision
1524,11,25,112,2,2038.16699981689,vision
1525,11,26,135,2,2035.35008430481,vision
1526,11,27,145,2,2434.9570274353,vision
1527,11,28,111,3,3841.1328792572,vision
1528,11,29,78,2,7112.6880645752,vision
1529,11,30,56,2,945.044994354248,vision
1530,11,31,22,3,3379.65798377991,vision
1531,11,32,95,2,2098.86407852173,vision
1532,11,33,98,2,1509.82213020325,vision
1533,11,34,129,1,2116.28293991089,vision
1534,11,35,68,2,4237.37978935242,vision
1535,11,36,17,3,13122.5810050964,vision
1536,11,37,79,2,1254.1811466217,vision
1537,11,38,41,3,4922.68300056458,vision
1538,11,39,52,2,1312.73508071899,vision
1539,11,40,27,1,4453.63998413086,vision
1540,11,41,38,3,1891.95895195007,vision
1541,11,42,100,3,3145.47419548035,vision
1542,11,43,23,3,4825.58679580688,vision
1543,11,44,150,3,5516.36290550232,vision
1544,11,45,62,1,2140.11287689209,vision
1545,11,46,49,3,2467.78106689453,vision
1546,11,47,147,2,1346.31419181824,vision
1547,11,48,14,3,13631.4299106598,vision
1548,11,49,40,3,2692.59691238403,vision
1549,11,50,125,3,4346.62413597107,vision
1550,11,51,51,2,1812.50619888306,vision
1551,11,52,16,3,10665.7848358154,vision
1552,11,53,122,2,1683.7010383606,vision
1553,11,54,13,3,6489.58587646484,vision
1554,11,55,42,3,2125.31590461731,vision
1555,11,56,10,2,4646.25883102417,vision
1556,11,57,106,2,1519.60492134094,vision
1557,11,58,136,2,970.405101776123,vision
1558,11,59,132,2,4715.14701843262,vision
1559,11,60,24,3,6157.11116790771,vision
1560,11,61,121,3,6348.91200065613,vision
1561,11,62,43,2,1891.86310768127,vision
1562,11,63,133,2,3183.63213539124,vision
1563,11,64,33,3,6650.93612670898,vision
1564,11,65,131,2,1687.44492530823,vision
1565,11,66,37,1,1904.07991409302,vision
1566,11,67,59,1,1920.02892494202,vision
1567,11,68,53,3,2889.62388038635,vision
1568,11,69,35,2,1159.93714332581,vision
1569,11,70,19,1,3681.83398246765,vision
1570,11,71,120,2,3419.0080165863,vision
1571,11,72,107,1,2358.52599143982,vision
1572,11,73,64,2,3208.27698707581,vision
1573,11,74,6,2,3341.11618995667,vision
1574,11,75,90,2,3516.38793945312,vision
1575,11,76,46,1,2309.72290039062,vision
1576,11,77,25,2,3548.09999465942,vision
1577,11,78,103,2,1520.99204063416,vision
1578,11,79,93,2,1161.1659526825,vision
1579,11,80,29,2,5253.2811164856,vision
1580,11,81,70,3,1329.66709136963,vision
1581,11,82,47,2,10118.4158325195,vision
1582,11,84,73,2,4979.54702377319,vision
1583,11,85,80,2,2152.63295173645,vision
1584,11,86,130,2,2592.17214584351,vision
1585,11,90,75,3,2076.35521888733,vision
1586,11,91,94,2,2341.19009971619,vision
1587,11,93,21,2,1894.66094970703,vision
1588,11,94,82,2,2078.0189037323,vision
1589,11,97,105,3,2912.39714622498,vision
1590,11,98,113,2,1330.50584793091,vision
1591,11,99,8,3,3463.623046875,vision
1592,11,100,74,3,3518.62502098083,vision
1593,11,102,71,2,3002.73418426514,vision
1594,11,103,104,1,1526.09205245972,vision
1595,11,106,148,3,3974.62201118469,vision
1596,11,107,57,1,3118.33190917969,vision
1597,11,109,2,2,11894.0570354462,vision
1598,11,111,124,1,4459.52486991882,vision
1599,11,112,140,2,3212.74709701538,vision
1600,11,113,116,1,2361.9430065155,vision
1601,11,114,84,1,2435.56618690491,vision
1602,11,115,39,3,1959.84983444214,vision
1603,11,118,96,2,2389.46890830994,vision
1604,11,121,89,1,1347.60999679565,vision
1605,11,122,119,3,2690.00601768494,vision
1606,11,123,127,2,2194.64588165283,vision
1607,11,126,11,3,4675.33206939697,vision
1608,11,127,45,3,4565.54388999939,vision
1609,11,129,3,2,8084.95187759399,vision
1610,11,132,61,1,1454.32686805725,vision
1611,11,133,118,1,2560.17208099365,vision
1612,11,139,81,2,3035.44282913208,vision
1613,11,140,128,2,1246.18196487427,vision
1614,11,142,83,2,11651.6740322113,vision
1615,11,143,139,1,3224.08509254456,vision
1616,11,144,77,1,3260.28895378113,vision
1617,11,145,134,3,2699.56398010254,vision
1618,11,148,102,1,1263.40508460999,vision
1619,11,149,146,3,2636.31892204285,vision
1620,11,154,44,3,4476.63617134094,vision
1621,11,156,91,1,6196.13981246948,vision
1622,11,158,114,3,1050.23288726807,vision
1623,11,163,9,1,8176.45907402039,vision
1624,11,166,101,3,2621.22511863708,vision
1625,11,170,34,3,2387.12692260742,vision
1626,11,173,87,3,4775.21300315857,vision
1627,11,179,36,1,2158.88905525208,vision
1628,11,183,63,2,3224.55596923828,vision
1629,11,186,138,1,1458.0090045929,vision
1630,11,190,123,3,2086.37189865112,vision
1631,11,192,142,1,1829.51307296753,vision
1632,11,196,58,2,2118.57509613037,vision
1633,11,207,92,1,3517.38286018372,vision
1634,11,210,60,1,1974.85995292664,vision
1635,11,214,18,1,5167.75894165039,vision
1636,11,215,54,1,2681.10799789429,vision
1637,11,223,12,2,21098.2718467712,vision
1638,11,254,97,1,4537.33897209167,vision
1639,11,283,1,3,11576.2770175934,vision
1640,11,289,5,2,11720.6239700317,vision
1641,11,297,76,2,2050.90188980103,vision
1642,11,302,20,1,3854.80189323425,vision
1643,11,306,66,3,1335.52694320679,vision
1644,11,307,67,1,1286.09395027161,vision
1645,11,316,26,3,9412.33992576599,vision
1646,11,319,32,1,4606.32586479187,vision
1647,11,326,48,1,1592.77415275574,vision
1648,11,332,110,1,1016.48902893066,vision
1649,11,380,115,3,2264.69087600708,vision
1650,12,1,50,3,1773.96512031555,vision
1651,12,2,68,3,1582.05509185791,vision
1652,12,3,101,3,1317.46387481689,vision
1653,12,4,139,1,2538.04993629456,vision
1654,12,5,25,2,2124.41802024841,vision
1655,12,6,69,1,1269.97089385986,vision
1656,12,7,18,3,1687.93201446533,vision
1657,12,8,60,1,1446.11692428589,vision
1658,12,9,78,1,1192.85106658936,vision
1659,12,10,44,1,1217.96607971191,vision
1660,12,11,132,3,1841.60280227661,vision
1661,12,12,2,2,2881.19888305664,vision
1662,12,13,1,2,2496.59395217896,vision
1663,12,14,92,2,1683.6268901825,vision
1664,12,15,73,1,1720.88503837585,vision
1665,12,16,72,3,2926.21684074402,vision
1666,12,17,58,1,1040.07387161255,vision
1667,12,18,129,3,1523.42700958252,vision
1668,12,19,81,1,2106.84204101562,vision
1669,12,20,79,1,1727.67806053162,vision
1670,12,21,108,3,2098.69599342346,vision
1671,12,22,34,2,1387.20393180847,vision
1672,12,23,126,2,1166.20683670044,vision
1673,12,24,46,1,2397.37319946289,vision
1674,12,25,136,3,1882.38096237183,vision
1675,12,26,67,2,1514.98293876648,vision
1676,12,27,83,2,1423.82216453552,vision
1677,12,28,117,2,242.507934570312,vision
1678,12,29,36,1,1803.47800254822,vision
1679,12,30,94,1,1309.09895896912,vision
1680,12,31,149,3,1995.17393112183,vision
1681,12,32,124,3,1938.23504447937,vision
1682,12,33,48,2,2142.93193817139,vision
1683,12,34,134,2,1585.48283576965,vision
1684,12,35,52,1,1196.01583480835,vision
1685,12,36,90,1,1343.21188926697,vision
1686,12,37,135,2,1928.40194702148,vision
1687,12,38,128,1,2342.08393096924,vision
1688,12,39,130,3,3298.663854599,vision
1689,12,40,35,3,1450.31809806824,vision
1690,12,41,62,1,1282.25207328796,vision
1691,12,42,106,1,1511.75498962402,vision
1692,12,43,56,2,1071.77805900574,vision
1693,12,44,61,1,2335.51788330078,vision
1694,12,45,23,1,2012.58707046509,vision
1695,12,46,89,2,1073.71997833252,vision
1696,12,47,20,3,1838.45186233521,vision
1697,12,48,150,2,1805.94301223755,vision
1698,12,49,141,3,1545.85289955139,vision
1699,12,50,15,3,2303.95197868347,vision
1700,12,51,112,1,1537.78886795044,vision
1701,12,52,144,1,1048.43211174011,vision
1702,12,53,38,1,2304.51011657715,vision
1703,12,54,74,1,2291.59188270569,vision
1704,12,55,12,3,3272.78709411621,vision
1705,12,56,91,1,2032.29117393494,vision
1706,12,57,133,1,1475.98099708557,vision
1707,12,58,138,2,2085.38198471069,vision
1708,12,59,42,1,1955.6450843811,vision
1709,12,60,98,1,1429.17394638062,vision
1710,12,61,143,3,1402.95886993408,vision
1711,12,62,37,2,1552.17695236206,vision
1712,12,63,43,3,1270.45798301697,vision
1713,12,64,57,2,1772.69816398621,vision
1714,12,65,147,1,1206.25805854797,vision
1715,12,66,5,2,2974.88212585449,vision
1716,12,67,116,3,1412.98699378967,vision
1717,12,68,105,2,629.807949066162,vision
1718,12,69,27,3,1895.41506767273,vision
1719,12,70,70,2,1163.59400749207,vision
1720,12,71,11,2,3106.51588439941,vision
1721,12,72,33,1,1668.61701011658,vision
1722,12,73,71,3,2749.99594688416,vision
1723,12,74,103,2,898.642063140869,vision
1724,12,75,21,3,2263.23986053467,vision
1725,12,76,137,3,2116.59002304077,vision
1726,12,77,49,1,2059.08799171448,vision
1727,12,78,93,3,1323.50921630859,vision
1728,12,79,40,2,1298.06590080261,vision
1729,12,80,30,1,3205.30700683594,vision
1730,12,81,19,3,2239.09306526184,vision
1731,12,82,88,1,1203.10497283936,vision
1732,12,84,109,1,1770.51305770874,vision
1733,12,85,75,1,1728.4848690033,vision
1734,12,86,66,2,1649.52707290649,vision
1735,12,90,9,1,2042.69099235535,vision
1736,12,91,84,1,1112.50400543213,vision
1737,12,93,65,1,1706.94518089294,vision
1738,12,94,121,1,2341.36700630188,vision
1739,12,97,119,3,2049.63207244873,vision
1740,12,98,96,1,1211.0481262207,vision
1741,12,99,148,3,1129.5530796051,vision
1742,12,100,76,1,1554.30603027344,vision
1743,12,102,142,2,2325.77419281006,vision
1744,12,103,95,3,1753.69691848755,vision
1745,12,106,107,1,1972.33200073242,vision
1746,12,107,39,3,1537.92595863342,vision
1747,12,109,47,3,2113.25287818909,vision
1748,12,111,6,3,2768.0811882019,vision
1749,12,112,131,2,2778.21803092957,vision
1750,12,113,4,2,3000.87118148804,vision
1751,12,114,31,2,2410.47596931458,vision
1752,12,115,63,3,1154.57797050476,vision
1753,12,118,32,1,1422.57905006409,vision
1754,12,121,22,1,2047.90687561035,vision
1755,12,122,53,1,1256.07395172119,vision
1756,12,123,115,1,2042.6390171051,vision
1757,12,126,146,2,2151.49712562561,vision
1758,12,127,122,3,2224.66087341309,vision
1759,12,129,140,3,4178.88593673706,vision
1760,12,132,45,1,2165.34113883972,vision
1761,12,133,29,1,2771.04902267456,vision
1762,12,139,51,2,1925.2610206604,vision
1763,12,140,24,2,2137.5298500061,vision
1764,12,142,99,3,1220.68214416504,vision
1765,12,143,120,1,1982.93900489807,vision
1766,12,144,145,2,1989.55798149109,vision
1767,12,145,59,3,1982.28192329407,vision
1768,12,148,125,2,2637.20703125,vision
1769,12,149,102,3,1814.81409072876,vision
1770,12,154,77,1,1787.80698776245,vision
1771,12,156,55,3,1991.53304100037,vision
1772,12,158,97,2,1964.47205543518,vision
1773,12,163,8,2,1460.82615852356,vision
1774,12,166,7,3,3729.63190078735,vision
1775,12,170,127,1,2638.62419128418,vision
1776,12,173,110,1,1844.28691864014,vision
1777,12,179,87,2,2319.16499137878,vision
1778,12,183,111,2,1802.08897590637,vision
1779,12,186,104,2,1628.01694869995,vision
1780,12,190,16,2,1959.44595336914,vision
1781,12,192,54,3,1487.9150390625,vision
1782,12,196,80,3,2111.25493049622,vision
1783,12,207,113,2,1372.38907814026,vision
1784,12,210,82,1,1284.36684608459,vision
1785,12,214,123,1,2410.4208946228,vision
1786,12,215,100,1,1539.82710838318,vision
1787,12,223,14,1,2992.23804473877,vision
1788,12,254,85,3,1030.63011169434,vision
1789,12,283,64,3,1406.77213668823,vision
1790,12,289,3,1,4599.0891456604,vision
1791,12,297,10,3,2170.18795013428,vision
1792,12,302,114,2,1985.94498634338,vision
1793,12,306,26,1,2076.57289505005,vision
1794,12,307,28,3,2291.09287261963,vision
1795,12,316,13,2,2555.36508560181,vision
1796,12,319,86,1,1073.44007492065,vision
1797,12,326,118,2,2083.85014533997,vision
1798,12,332,41,3,2087.6989364624,vision
1799,12,380,17,2,2751.03402137756,vision
1800,13,1,127,2,920.550107955933,vision
1801,13,2,91,3,7938.50088119507,vision
1802,13,3,130,1,4761.32822036743,vision
1803,13,4,119,3,3489.13192749023,vision
1804,13,5,37,2,4570.03998756409,vision
1805,13,6,68,1,9482.60498046875,vision
1806,13,7,6,3,4545.89891433716,vision
1807,13,8,93,1,5641.16597175598,vision
1808,13,9,106,1,1572.63803482056,vision
1809,13,10,43,3,7379.80699539185,vision
1810,13,11,111,3,2481.63223266602,vision
1811,13,12,142,1,4589.41197395325,vision
1812,13,13,118,2,5601.73487663269,vision
1813,13,14,123,3,1802.20890045166,vision
1814,13,15,48,1,1248.17991256714,vision
1815,13,16,112,2,2075.7942199707,vision
1816,13,17,22,3,5161.49401664734,vision
1817,13,18,139,2,2590.43002128601,vision
1818,13,19,104,1,3790.87591171265,vision
1819,13,20,87,1,2224.6720790863,vision
1820,13,21,98,2,5390.35701751709,vision
1821,13,22,13,2,3546.29397392273,vision
1822,13,23,57,3,1905.38096427917,vision
1823,13,24,65,3,1507.98797607422,vision
1824,13,25,60,3,10362.1120452881,vision
1825,13,26,19,3,1521.98481559753,vision
1826,13,27,36,3,5905.58385848999,vision
1827,13,28,71,1,5062.78991699219,vision
1828,13,29,74,1,4852.39100456238,vision
1829,13,30,79,2,1346.69208526611,vision
1830,13,31,16,3,4607.2518825531,vision
1831,13,32,46,2,6257.6220035553,vision
1832,13,33,53,2,1336.45796775818,vision
1833,13,34,9,1,3093.3849811554,vision
1834,13,35,76,2,3224.85208511353,vision
1835,13,36,150,3,4346.22311592102,vision
1836,13,37,84,2,7962.73398399353,vision
1837,13,38,23,3,3932.68585205078,vision
1838,13,39,54,1,3709.03491973877,vision
1839,13,40,3,1,5815.45209884644,vision
1840,13,41,69,3,1920.03893852234,vision
1841,13,42,126,3,4986.35601997375,vision
1842,13,43,135,1,7576.21788978577,vision
1843,13,44,4,3,5267.90285110474,vision
1844,13,45,108,1,990.600109100342,vision
1845,13,46,15,3,1275.1259803772,vision
1846,13,47,52,3,6829.66685295105,vision
1847,13,48,67,3,8441.22910499573,vision
1848,13,49,89,3,2266.84498786926,vision
1849,13,50,35,2,4202.11291313171,vision
1850,13,51,96,1,4584.51795578003,vision
1851,13,52,73,3,4468.45388412476,vision
1852,13,53,26,2,11979.5188903809,vision
1853,13,54,10,3,2619.17781829834,vision
1854,13,55,149,3,3116.45007133484,vision
1855,13,56,92,2,4077.65698432922,vision
1856,13,57,21,3,1576.08699798584,vision
1857,13,58,24,2,6932.47294425964,vision
1858,13,59,61,2,13059.7970485687,vision
1859,13,60,147,3,1750.40698051453,vision
1860,13,61,32,3,2589.33782577515,vision
1861,13,62,28,1,7758.72707366943,vision
1862,13,63,41,2,6728.20591926575,vision
1863,13,64,17,3,3552.16407775879,vision
1864,13,65,80,1,1673.32696914673,vision
1865,13,66,120,1,7660.40802001953,vision
1866,13,67,117,2,5792.53888130188,vision
1867,13,68,77,2,2907.13787078857,vision
1868,13,69,122,2,4087.84794807434,vision
1869,13,70,20,1,3353.38306427002,vision
1870,13,71,47,1,4959.50484275818,vision
1871,13,72,107,1,1570.51301002502,vision
1872,13,73,138,3,4466.33791923523,vision
1873,13,74,136,3,7782.50598907471,vision
1874,13,75,62,2,4091.80092811584,vision
1875,13,76,94,1,8054.99196052551,vision
1876,13,77,40,3,17929.1958808899,vision
1877,13,78,125,2,2502.61282920837,vision
1878,13,79,82,2,2256.13713264465,vision
1879,13,80,27,3,4999.37796592712,vision
1880,13,81,133,2,4209.09380912781,vision
1881,13,82,42,2,8018.18180084229,vision
1882,13,84,59,1,6477.67519950867,vision
1883,13,85,100,1,7555.82499504089,vision
1884,13,86,143,2,3051.10907554626,vision
1885,13,90,141,3,3332.96084403992,vision
1886,13,91,1,3,5982.74993896484,vision
1887,13,93,49,2,1875.61202049255,vision
1888,13,94,101,2,5139.16110992432,vision
1889,13,97,110,1,4674.38793182373,vision
1890,13,98,116,3,6875.66614151001,vision
1891,13,99,11,3,1653.3510684967,vision
1892,13,100,124,3,3300.84109306335,vision
1893,13,102,39,1,4354.89702224731,vision
1894,13,103,83,1,3097.03302383423,vision
1895,13,106,7,3,8121.35601043701,vision
1896,13,107,129,1,6167.76299476624,vision
1897,13,109,63,3,2563.38286399841,vision
1898,13,111,88,1,1126.27291679382,vision
1899,13,112,2,3,9329.99205589294,vision
1900,13,113,5,1,10319.0150260925,vision
1901,13,114,95,1,1223.89602661133,vision
1902,13,115,45,3,8810.36901473999,vision
1903,13,118,132,3,2869.62890625,vision
1904,13,121,146,1,1455.53708076477,vision
1905,13,122,86,3,2083.82511138916,vision
1906,13,123,144,1,3254.45199012756,vision
1907,13,126,99,3,3130.36203384399,vision
1908,13,127,97,3,2202.0537853241,vision
1909,13,129,30,3,3859.42506790161,vision
1910,13,132,85,1,3631.52813911438,vision
1911,13,133,103,1,2901.84688568115,vision
1912,13,139,38,1,1137.19797134399,vision
1913,13,140,8,2,12687.2339248657,vision
1914,13,142,51,2,12091.4540290833,vision
1915,13,143,55,1,3567.91687011719,vision
1916,13,144,66,1,5331.71606063843,vision
1917,13,145,128,3,2144.22702789307,vision
1918,13,148,58,1,4167.75703430176,vision
1919,13,149,140,2,2486.92083358765,vision
1920,13,154,134,3,3699.99504089355,vision
1921,13,156,113,1,1856.06789588928,vision
1922,13,158,115,3,1991.87207221985,vision
1923,13,163,64,1,5072.02196121216,vision
1924,13,166,14,3,1520.1370716095,vision
1925,13,170,56,3,1737.43915557861,vision
1926,13,173,18,3,6615.08083343506,vision
1927,13,179,145,1,4196.38109207153,vision
1928,13,183,137,3,1106.02188110352,vision
1929,13,186,102,1,4240.18406867981,vision
1930,13,190,90,3,2096.11511230469,vision
1931,13,192,75,1,2034.99007225037,vision
1932,13,196,50,3,9909.38901901245,vision
1933,13,207,121,1,6496.53816223145,vision
1934,13,210,44,1,2101.81999206543,vision
1935,13,214,148,1,6859.94005203247,vision
1936,13,215,114,1,1839.20097351074,vision
1937,13,223,29,1,11207.0848941803,vision
1938,13,254,12,1,2940.29593467712,vision
1939,13,283,78,1,1785.31718254089,vision
1940,13,289,34,2,5832.53407478333,vision
1941,13,297,131,1,3141.98708534241,vision
1942,13,302,33,1,2341.54295921326,vision
1943,13,306,81,3,2181.7991733551,vision
1944,13,307,70,1,2802.74105072021,vision
1945,13,316,105,3,3390.18511772156,vision
1946,13,319,31,1,7952.14819908142,vision
1947,13,326,25,1,3125.11396408081,vision
1948,13,332,72,1,2908.05101394653,vision
1949,13,380,109,3,2530.07984161377,vision
1950,14,1,126,2,701.472997665405,vision
1951,14,2,124,2,683.828115463257,vision
1952,14,3,38,2,746.066093444824,vision
1953,14,4,44,3,914.086103439331,vision
1954,14,5,3,3,9217.15497970581,vision
1955,14,6,147,2,2842.15998649597,vision
1956,14,7,16,3,5333.87613296509,vision
1957,14,8,66,2,1644.63996887207,vision
1958,14,9,50,1,695.634841918945,vision
1959,14,10,35,2,1136.0068321228,vision
1960,14,11,75,2,1354.56395149231,vision
1961,14,12,67,1,860.125064849854,vision
1962,14,13,69,2,2545.86887359619,vision
1963,14,14,43,3,807.740926742554,vision
1964,14,15,53,1,730.914831161499,vision
1965,14,16,45,1,549.008131027222,vision
1966,14,17,105,3,2015.26093482971,vision
1967,14,18,101,1,3885.07318496704,vision
1968,14,19,41,1,921.009063720703,vision
1969,14,20,144,1,729.181051254272,vision
1970,14,21,95,2,649.832963943481,vision
1971,14,22,92,2,1750.5350112915,vision
1972,14,23,6,2,5557.87992477417,vision
1973,14,24,146,3,732.321977615356,vision
1974,14,25,82,1,2937.78800964355,vision
1975,14,26,97,3,864.459037780762,vision
1976,14,27,61,3,2192.78597831726,vision
1977,14,28,47,3,1778.59592437744,vision
1978,14,29,14,2,3517.75002479553,vision
1979,14,30,11,2,2315.26398658752,vision
1980,14,31,96,2,1259.87386703491,vision
1981,14,32,123,2,680.674076080322,vision
1982,14,33,30,2,806.050062179565,vision
1983,14,34,85,1,3832.02409744263,vision
1984,14,35,133,3,1303.05099487305,vision
1985,14,36,12,3,3636.25001907349,vision
1986,14,37,137,2,814.320802688599,vision
1987,14,38,25,3,1247.54595756531,vision
1988,14,39,76,2,610.656023025513,vision
1989,14,40,93,1,1329.70690727234,vision
1990,14,41,65,3,1497.19405174255,vision
1991,14,42,89,3,2425.6329536438,vision
1992,14,43,52,2,1126.38711929321,vision
1993,14,44,37,3,1375.26702880859,vision
1994,14,45,83,1,3234.67302322388,vision
1995,14,46,23,3,1684.38601493835,vision
1996,14,47,70,2,1761.36898994446,vision
1997,14,48,1,3,3136.75308227539,vision
1998,14,49,150,3,1406.94785118103,vision
1999,14,50,122,2,1696.10595703125,vision
2000,14,51,55,2,897.326946258545,vision
2001,14,52,57,3,869.300127029419,vision
2002,14,53,29,3,3642.56381988525,vision
2003,14,54,87,3,1306.79702758789,vision
2004,14,55,51,3,893.476963043213,vision
2005,14,56,141,2,2099.85995292664,vision
2006,14,57,94,3,1273.95796775818,vision
2007,14,58,22,2,904.287099838257,vision
2008,14,59,114,1,2229.651927948,vision
2009,14,60,15,3,1290.21191596985,vision
2010,14,61,104,3,2691.88785552979,vision
2011,14,62,28,2,6297.66511917114,vision
2012,14,63,130,2,1242.47312545776,vision
2013,14,64,119,2,1483.234167099,vision
2014,14,65,2,1,10142.8780555725,vision
2015,14,66,56,1,2468.69897842407,vision
2016,14,67,90,1,678.246974945068,vision
2017,14,68,138,2,679.446935653687,vision
2018,14,69,34,2,730.122089385986,vision
2019,14,70,63,1,5108.79111289978,vision
2020,14,71,68,2,1780.06100654602,vision
2021,14,72,27,1,1974.76196289062,vision
2022,14,73,46,3,913.853168487549,vision
2023,14,74,108,2,1017.96293258667,vision
2024,14,75,132,2,2208.80913734436,vision
2025,14,76,40,1,1263.23795318604,vision
2026,14,77,99,3,1628.84402275085,vision
2027,14,78,10,1,1599.0948677063,vision
2028,14,79,125,3,1391.69192314148,vision
2029,14,80,58,2,634.446144104004,vision
2030,14,81,149,3,1904.28304672241,vision
2031,14,82,131,2,1016.51501655579,vision
2032,14,84,74,2,2590.47985076904,vision
2033,14,85,139,1,2115.79489707947,vision
2034,14,86,111,3,2005.90801239014,vision
2035,14,90,8,3,4846.25196456909,vision
2036,14,91,26,3,2719.85101699829,vision
2037,14,93,145,2,645.853042602539,vision
2038,14,94,135,1,1217.03600883484,vision
2039,14,97,48,3,2213.14215660095,vision
2040,14,98,79,2,1517.00091362,vision
2041,14,99,117,3,4616.79196357727,vision
2042,14,100,9,3,2890.13695716858,vision
2043,14,102,136,2,756.083965301514,vision
2044,14,103,88,1,1390.83003997803,vision
2045,14,106,5,3,6918.39098930359,vision
2046,14,107,127,3,5269.77205276489,vision
2047,14,109,4,3,8651.10611915588,vision
2048,14,111,100,1,724.909782409668,vision
2049,14,112,106,3,1480.29899597168,vision
2050,14,113,20,2,3198.96507263184,vision
2051,14,114,148,1,1491.09101295471,vision
2052,14,115,86,3,5984.88092422485,vision
2053,14,118,39,3,1153.16700935364,vision
2054,14,121,62,1,1903.94616127014,vision
2055,14,122,60,3,1169.05307769775,vision
2056,14,123,143,1,3790.363073349,vision
2057,14,126,71,3,2851.67908668518,vision
2058,14,127,7,3,5971.16708755493,vision
2059,14,129,91,3,4343.77598762512,vision
2060,14,132,77,1,728.00087928772,vision
2061,14,133,78,1,806.895017623901,vision
2062,14,139,36,1,769.134998321533,vision
2063,14,140,121,2,1998.25882911682,vision
2064,14,142,118,2,2471.21596336365,vision
2065,14,143,72,1,3180.89699745178,vision
2066,14,144,80,1,3552.31404304504,vision
2067,14,145,112,3,3750.57697296143,vision
2068,14,148,33,1,854.897022247314,vision
2069,14,149,17,2,7173.81906509399,vision
2070,14,154,98,3,977.852821350098,vision
2071,14,156,18,1,1077.88109779358,vision
2072,14,158,19,3,1299.39794540405,vision
2073,14,163,24,1,1101.46808624268,vision
2074,14,166,129,3,801.746129989624,vision
2075,14,170,115,3,957.609891891479,vision
2076,14,173,109,3,1178.67493629456,vision
2077,14,179,42,1,1929.61716651917,vision
2078,14,183,32,3,952.460050582886,vision
2079,14,186,59,1,1232.61904716492,vision
2080,14,190,84,3,1594.20895576477,vision
2081,14,192,113,1,3345.60394287109,vision
2082,14,196,31,3,5138.96679878235,vision
2083,14,207,107,1,3139.89210128784,vision
2084,14,210,142,1,815.848112106323,vision
2085,14,214,128,1,1617.61903762817,vision
2086,14,215,116,1,4249.50790405273,vision
2087,14,223,102,2,5575.21796226501,vision
2088,14,254,140,1,2633.18514823914,vision
2089,14,283,81,1,809.620141983032,vision
2090,14,289,13,1,3025.09212493896,vision
2091,14,297,110,1,724.939107894897,vision
2092,14,302,21,1,1734.62414741516,vision
2093,14,306,120,3,1058.47191810608,vision
2094,14,307,134,1,1556.38790130615,vision
2095,14,316,73,3,1770.13802528381,vision
2096,14,319,103,1,2157.24802017212,vision
2097,14,326,54,1,1331.48789405823,vision
2098,14,332,64,1,1027.35304832458,vision
2099,14,380,49,3,1672.91116714478,vision
2100,15,1,88,2,892.93098449707,vision
2101,15,2,90,2,977.434158325195,vision
2102,15,3,141,2,908.389806747437,vision
2103,15,4,6,3,935.8971118927,vision
2104,15,5,48,2,2157.07206726074,vision
2105,15,6,139,1,2879.00996208191,vision
2106,15,7,104,3,1461.09509468079,vision
2107,15,8,28,1,3701.83706283569,vision
2108,15,9,3,1,881.885051727295,vision
2109,15,10,95,1,1969.89703178406,vision
2110,15,11,89,3,1816.75601005554,vision
2111,15,12,86,1,2543.2870388031,vision
2112,15,13,53,2,4167.58704185486,vision
2113,15,14,130,3,1317.8870677948,vision
2114,15,15,102,1,1142.29893684387,vision
2115,15,16,64,2,2240.86594581604,vision
2116,15,17,129,2,2080.47294616699,vision
2117,15,18,15,2,1765.49601554871,vision
2118,15,19,21,2,2250.31900405884,vision
2119,15,20,147,1,1899.40500259399,vision
2120,15,21,24,2,1588.3891582489,vision
2121,15,22,19,2,1947.32904434204,vision
2122,15,23,42,3,1619.97008323669,vision
2123,15,24,49,3,1193.55797767639,vision
2124,15,25,131,2,1855.49712181091,vision
2125,15,26,2,3,1200.53195953369,vision
2126,15,27,10,3,1107.16915130615,vision
2127,15,28,71,2,1702.10814476013,vision
2128,15,29,44,1,2115.16690254211,vision
2129,15,30,29,2,1078.28998565674,vision
2130,15,31,133,2,1467.25487709045,vision
2131,15,32,97,2,1947.11089134216,vision
2132,15,33,31,2,1168.54405403137,vision
2133,15,34,40,1,3947.39294052124,vision
2134,15,35,83,2,2385.86401939392,vision
2135,15,36,73,2,5365.91696739197,vision
2136,15,37,85,2,2124.71079826355,vision
2137,15,38,119,3,2291.96000099182,vision
2138,15,39,22,2,1090.32297134399,vision
2139,15,40,76,1,1478.0261516571,vision
2140,15,41,47,3,2774.74904060364,vision
2141,15,42,126,3,1783.4849357605,vision
2142,15,43,82,2,1951.15900039673,vision
2143,15,44,93,3,2046.74315452576,vision
2144,15,45,50,1,2330.30390739441,vision
2145,15,46,34,2,1340.5179977417,vision
2146,15,47,136,2,4470.47400474548,vision
2147,15,48,77,3,3363.60096931458,vision
2148,15,49,17,3,3743.16191673279,vision
2149,15,50,149,2,2092.48304367065,vision
2150,15,51,98,2,1761.146068573,vision
2151,15,52,142,3,848.697185516357,vision
2152,15,53,75,2,1907.47499465942,vision
2153,15,54,121,3,950.435876846313,vision
2154,15,55,144,3,1695.35803794861,vision
2155,15,56,122,2,1662.30988502502,vision
2156,15,57,109,3,896.836042404175,vision
2157,15,58,103,2,1154.13999557495,vision
2158,15,59,36,1,2571.03800773621,vision
2159,15,60,124,3,950.539112091064,vision
2160,15,61,65,3,2101.4769077301,vision
2161,15,62,125,1,1621.91009521484,vision
2162,15,63,113,2,2291.02993011475,vision
2163,15,64,35,2,1818.53890419006,vision
2164,15,65,134,1,1339.27083015442,vision
2165,15,66,23,2,2236.32502555847,vision
2166,15,67,54,1,1317.92402267456,vision
2167,15,68,108,3,1064.49103355408,vision
2168,15,69,7,2,1164.11995887756,vision
2169,15,70,106,1,1273.31590652466,vision
2170,15,71,145,2,3332.22198486328,vision
2171,15,72,146,1,1624.33815002441,vision
2172,15,73,1,3,1206.64596557617,vision
2173,15,74,70,3,5679.29911613464,vision
2174,15,75,111,2,1316.11800193787,vision
2175,15,76,80,1,3985.50415039062,vision
2176,15,77,140,3,1463.77801895142,vision
2177,15,78,99,1,1038.51103782654,vision
2178,15,79,57,3,1194.36383247375,vision
2179,15,80,55,2,941.793918609619,vision
2180,15,81,11,3,1134.8340511322,vision
2181,15,82,12,2,1055.3138256073,vision
2182,15,84,127,1,1401.71599388123,vision
2183,15,85,60,1,1755.76090812683,vision
2184,15,86,68,3,2072.58105278015,vision
2185,15,90,78,3,2758.15391540527,vision
2186,15,91,58,2,2807.63411521912,vision
2187,15,93,51,2,1035.41707992554,vision
2188,15,94,148,2,4290.6641960144,vision
2189,15,97,110,2,1340.43788909912,vision
2190,15,98,117,2,1622.36499786377,vision
2191,15,99,33,1,3298.45404624939,vision
2192,15,100,18,3,1463.6549949646,vision
2193,15,102,63,1,1840.84010124207,vision
2194,15,103,16,2,4264.44792747498,vision
2195,15,106,9,3,1507.80510902405,vision
2196,15,107,25,1,1805.1290512085,vision
2197,15,109,4,3,2626.63888931274,vision
2198,15,111,39,1,1314.6800994873,vision
2199,15,112,72,3,1643.40996742249,vision
2200,15,113,52,2,2373.73900413513,vision
2201,15,114,30,1,1344.4619178772,vision
2202,15,115,135,2,3645.26677131653,vision
2203,15,118,81,3,1922.29104042053,vision
2204,15,121,27,1,1658.40697288513,vision
2205,15,122,46,3,1674.1681098938,vision
2206,15,123,20,3,3253.37505340576,vision
2207,15,126,43,3,1214.12110328674,vision
2208,15,127,96,3,2228.91616821289,vision
2209,15,129,62,2,1440.96207618713,vision
2210,15,132,67,1,3159.90686416626,vision
2211,15,133,91,1,1609.03096199036,vision
2212,15,139,100,1,1423.37679862976,vision
2213,15,140,59,2,2065.49406051636,vision
2214,15,142,143,2,2366.44101142883,vision
2215,15,143,61,2,1511.90495491028,vision
2216,15,144,105,1,1437.70480155945,vision
2217,15,145,107,3,1449.66411590576,vision
2218,15,148,84,1,1883.70704650879,vision
2219,15,149,74,3,2412.16087341309,vision
2220,15,154,101,3,1287.32895851135,vision
2221,15,156,92,1,2213.2351398468,vision
2222,15,158,26,3,2624.3941783905,vision
2223,15,163,118,1,1278.18703651428,vision
2224,15,166,14,3,1186.53917312622,vision
2225,15,170,79,3,1842.76795387268,vision
2226,15,173,94,3,1610.63599586487,vision
2227,15,179,132,2,1852.50282287598,vision
2228,15,183,87,3,1378.34501266479,vision
2229,15,186,66,1,3406.69703483582,vision
2230,15,190,38,3,1586.19093894958,vision
2231,15,192,120,1,1801.64098739624,vision
2232,15,196,138,3,1540.06099700928,vision
2233,15,207,32,1,1265.62714576721,vision
2234,15,210,8,1,1349.42102432251,vision
2235,15,214,56,1,2324.64814186096,vision
2236,15,215,13,1,1889.47510719299,vision
2237,15,223,37,1,1969.91896629333,vision
2238,15,254,137,1,1394.48618888855,vision
2239,15,283,45,1,3315.08088111877,vision
2240,15,289,69,1,5462.5039100647,vision
2241,15,297,114,1,1764.89591598511,vision
2242,15,302,150,1,1410.84790229797,vision
2243,15,306,128,3,1049.96705055237,vision
2244,15,307,5,1,1323.64702224731,vision
2245,15,316,123,3,1209.6061706543,vision
2246,15,319,115,1,2673.46787452698,vision
2247,15,326,116,1,2090.33107757568,vision
2248,15,332,41,1,1587.56995201111,vision
2249,15,380,112,3,1020.36190032959,vision
2250,16,1,75,2,6403.20587158203,vision
2251,16,2,99,3,8462.3429775238,vision
2252,16,3,86,2,3662.58192062378,vision
2253,16,4,5,1,19065.290927887,vision
2254,16,5,97,2,6654.20007705688,vision
2255,16,6,59,1,18046.6890335083,vision
2256,16,7,2,3,12668.8859462738,vision
2257,16,8,137,1,6576.97606086731,vision
2258,16,9,32,1,9444.45610046387,vision
2259,16,10,24,3,24528.5019874573,vision
2260,16,11,71,3,7914.49499130249,vision
2261,16,12,118,1,3511.59811019897,vision
2262,16,13,67,2,3689.6378993988,vision
2263,16,14,85,3,5026.1390209198,vision
2264,16,15,98,1,13026.8650054932,vision
2265,16,16,13,2,2348.60610961914,vision
2266,16,17,58,1,9738.76905441284,vision
2267,16,18,106,2,5588.61708641052,vision
2268,16,19,22,2,2381.05392456055,vision
2269,16,20,54,1,8125.11801719666,vision
2270,16,21,147,2,5490.17906188965,vision
2271,16,22,116,3,8785.22801399231,vision
2272,16,23,33,3,5966.36700630188,vision
2273,16,24,141,3,3488.78908157349,vision
2274,16,25,94,3,9115.14902114868,vision
2275,16,26,108,3,3786.59200668335,vision
2276,16,27,120,3,3574.10383224487,vision
2277,16,28,1,2,8879.11105155945,vision
2278,16,29,68,1,4282.0839881897,vision
2279,16,30,122,2,20304.3789863586,vision
2280,16,31,114,1,4667.69695281982,vision
2281,16,32,135,2,7888.02909851074,vision
2282,16,33,17,2,2888.94510269165,vision
2283,16,34,31,1,3725.13604164124,vision
2284,16,35,26,3,35138.622045517,vision
2285,16,36,103,3,9530.89690208435,vision
2286,16,37,40,2,32894.48595047,vision
2287,16,38,61,3,9936.34510040283,vision
2288,16,39,44,1,2828.35412025452,vision
2289,16,40,140,1,2408.40101242065,vision
2290,16,41,143,3,2834.98597145081,vision
2291,16,42,4,2,10169.8141098022,vision
2292,16,43,25,3,44640.7220363617,vision
2293,16,44,78,3,3242.18797683716,vision
2294,16,45,21,1,3952.84700393677,vision
2295,16,46,65,3,10783.322095871,vision
2296,16,47,145,3,4904.58393096924,vision
2297,16,48,34,1,22354.9449443817,vision
2298,16,49,127,3,5269.79184150696,vision
2299,16,50,139,2,2544.89684104919,vision
2300,16,51,55,1,6876.5709400177,vision
2301,16,52,112,3,4977.89311408997,vision
2302,16,53,30,2,21186.733007431,vision
2303,16,54,36,3,7911.90695762634,vision
2304,16,55,63,3,3753.07512283325,vision
2305,16,56,37,2,21257.0359706879,vision
2306,16,57,82,3,16499.1140365601,vision
2307,16,58,87,2,2955.46197891235,vision
2308,16,59,52,3,14638.2489204407,vision
2309,16,60,72,3,3029.79898452759,vision
2310,16,61,64,1,13527.067899704,vision
2311,16,62,111,1,4258.84079933167,vision
2312,16,63,129,1,10074.2750167847,vision
2313,16,64,101,2,6039.1538143158,vision
2314,16,65,45,1,4750.7700920105,vision
2315,16,66,130,2,6186.18106842041,vision
2316,16,67,131,1,6336.29512786865,vision
2317,16,68,50,2,3851.27592086792,vision
2318,16,69,92,2,1969.19298171997,vision
2319,16,70,123,1,3623.31390380859,vision
2320,16,71,43,3,5890.76590538025,vision
2321,16,72,110,1,4631.34098052979,vision
2322,16,73,105,3,4971.59194946289,vision
2323,16,74,28,3,6253.6141872406,vision
2324,16,75,20,2,5847.08285331726,vision
2325,16,76,15,1,8511.6879940033,vision
2326,16,77,56,3,5896.88301086426,vision
2327,16,78,47,2,1903.53298187256,vision
2328,16,79,89,3,2470.88599205017,vision
2329,16,80,100,3,12433.1719875336,vision
2330,16,81,134,3,4238.40498924255,vision
2331,16,82,18,2,51871.8659877777,vision
2332,16,84,144,1,6014.24098014832,vision
2333,16,85,73,2,21424.772977829,vision
2334,16,86,113,2,20186.1231327057,vision
2335,16,90,96,3,5585.3099822998,vision
2336,16,91,39,2,14608.0260276794,vision
2337,16,93,8,2,2982.64408111572,vision
2338,16,94,11,2,16940.5899047852,vision
2339,16,97,142,1,12384.7541809082,vision
2340,16,98,27,3,7272.74703979492,vision
2341,16,99,29,1,35055.214881897,vision
2342,16,100,38,3,5456.1460018158,vision
2343,16,102,79,1,6989.66097831726,vision
2344,16,103,57,1,1945.70088386536,vision
2345,16,106,132,3,4052.983045578,vision
2346,16,107,148,1,37920.0060367584,vision
2347,16,109,80,3,3594.86603736877,vision
2348,16,111,93,1,1484.3430519104,vision
2349,16,112,115,3,9384.43398475647,vision
2350,16,113,126,2,5597.59998321533,vision
2351,16,114,88,1,2943.27402114868,vision
2352,16,115,69,3,19838.6890888214,vision
2353,16,118,81,3,7824.059009552,vision
2354,16,121,128,1,3040.69185256958,vision
2355,16,122,84,3,7041.64505004883,vision
2356,16,123,42,3,7443.13287734985,vision
2357,16,126,14,3,6134.14692878723,vision
2358,16,127,46,1,30775.0220298767,vision
2359,16,129,23,1,4949.59878921509,vision
2360,16,132,90,1,15122.4448680878,vision
2361,16,133,83,1,4194.6120262146,vision
2362,16,139,133,2,9698.68302345276,vision
2363,16,140,150,2,1668.6098575592,vision
2364,16,142,77,3,30572.4759101868,vision
2365,16,143,41,2,24237.8799915314,vision
2366,16,144,70,1,7172.79696464539,vision
2367,16,145,66,3,19620.2669143677,vision
2368,16,148,10,1,4423.66600036621,vision
2369,16,149,107,2,4832.7431678772,vision
2370,16,154,95,3,2044.74401473999,vision
2371,16,156,48,3,4347.8000164032,vision
2372,16,158,16,3,7610.31794548035,vision
2373,16,163,121,1,3245.81599235535,vision
2374,16,166,109,3,2631.09517097473,vision
2375,16,170,6,3,7293.45297813416,vision
2376,16,173,104,3,5330.17206192017,vision
2377,16,179,19,1,3102.27990150452,vision
2378,16,183,74,3,9040.84181785583,vision
2379,16,186,12,1,2436.69605255127,vision
2380,16,190,125,3,6619.76885795593,vision
2381,16,192,117,1,4257.41386413574,vision
2382,16,196,7,3,10022.9780673981,vision
2383,16,207,146,1,4610.6870174408,vision
2384,16,210,124,1,4301.43690109253,vision
2385,16,214,102,1,5266.72315597534,vision
2386,16,215,9,1,4746.55199050903,vision
2387,16,223,49,1,5885.1261138916,vision
2388,16,254,91,1,3228.34205627441,vision
2389,16,283,53,1,3415.21811485291,vision
2390,16,289,51,1,2048.94113540649,vision
2391,16,297,76,1,4773.77414703369,vision
2392,16,302,149,1,5690.56987762451,vision
2393,16,306,3,3,10316.7998790741,vision
2394,16,307,60,1,6592.52786636353,vision
2395,16,316,62,3,5279.33120727539,vision
2396,16,319,119,1,3624.06206130981,vision
2397,16,326,136,1,2806.59914016724,vision
2398,16,332,35,1,7193.6469078064,vision
2399,16,380,138,3,9580.35016059875,vision
2400,17,1,75,2,3621.83785438538,vision
2401,17,2,23,2,6630.56707382202,vision
2402,17,3,104,2,881.910085678101,vision
2403,17,4,24,3,3346.4879989624,vision
2404,17,5,105,2,3374.4490146637,vision
2405,17,6,14,2,5120.81289291382,vision
2406,17,7,96,3,2299.04913902283,vision
2407,17,8,82,1,3370.40495872498,vision
2408,17,9,30,1,1898.39816093445,vision
2409,17,10,35,2,6300.24814605713,vision
2410,17,11,143,3,2293.31088066101,vision
2411,17,12,148,1,2161.78607940674,vision
2412,17,13,85,2,2374.22108650208,vision
2413,17,14,33,3,3707.53693580627,vision
2414,17,15,26,1,2596.96698188782,vision
2415,17,16,91,2,2041.01610183716,vision
2416,17,17,16,1,9412.56904602051,vision
2417,17,18,88,2,7570.34301757812,vision
2418,17,19,12,2,3564.99099731445,vision
2419,17,20,113,1,3719.44189071655,vision
2420,17,21,136,2,1101.92799568176,vision
2421,17,22,123,2,2113.17896842957,vision
2422,17,23,108,3,1503.751039505,vision
2423,17,24,54,3,1780.48205375671,vision
2424,17,25,120,2,4494.64702606201,vision
2425,17,26,109,3,3156.39209747314,vision
2426,17,27,142,3,1487.2419834137,vision
2427,17,28,131,2,2121.81282043457,vision
2428,17,29,10,2,20313.8239383698,vision
2429,17,30,65,2,1386.35683059692,vision
2430,17,31,52,2,4445.79100608826,vision
2431,17,32,57,2,1236.57584190369,vision
2432,17,33,92,2,1039.90197181702,vision
2433,17,34,135,1,1164.75486755371,vision
2434,17,35,70,2,10551.6040325165,vision
2435,17,36,46,3,8428.04193496704,vision
2436,17,37,137,1,2387.05801963806,vision
2437,17,38,43,3,3668.44916343689,vision
2438,17,39,103,2,1255.94210624695,vision
2439,17,40,79,1,2650.30789375305,vision
2440,17,41,121,3,2227.62107849121,vision
2441,17,42,20,3,7500.58102607727,vision
2442,17,43,8,3,3693.68195533752,vision
2443,17,44,40,3,2166.55802726746,vision
2444,17,45,67,1,1536.13996505737,vision
2445,17,46,45,3,4912.0979309082,vision
2446,17,47,140,3,6107.92398452759,vision
2447,17,48,27,3,5113.00492286682,vision
2448,17,49,47,3,4292.80018806458,vision
2449,17,50,13,2,4696.47288322449,vision
2450,17,51,114,1,3927.78921127319,vision
2451,17,52,4,3,5680.27806282043,vision
2452,17,53,76,3,11191.7848587036,vision
2453,17,54,115,3,17063.6110305786,vision
2454,17,55,7,3,15463.6290073395,vision
2455,17,56,64,2,4370.03898620605,vision
2456,17,57,111,3,2020.19309997559,vision
2457,17,58,116,2,2839.03503417969,vision
2458,17,59,29,1,3039.33787345886,vision
2459,17,60,133,3,3224.2579460144,vision
2460,17,61,41,3,2120.39494514465,vision
2461,17,62,138,1,2878.2639503479,vision
2462,17,63,77,1,5612.66303062439,vision
2463,17,64,107,2,4017.17710494995,vision
2464,17,65,130,1,2231.65988922119,vision
2465,17,66,3,2,5122.86686897278,vision
2466,17,67,50,1,1192.45100021362,vision
2467,17,68,127,3,1677.03890800476,vision
2468,17,69,38,2,1680.77683448792,vision
2469,17,70,147,1,1153.09309959412,vision
2470,17,71,28,2,11895.7669734955,vision
2471,17,72,49,1,1430.86004257202,vision
2472,17,73,100,3,1004.42099571228,vision
2473,17,74,118,3,3247.98607826233,vision
2474,17,75,86,2,5040.43292999268,vision
2475,17,76,112,1,2401.74603462219,vision
2476,17,77,98,3,1644.34719085693,vision
2477,17,78,42,1,2998.32391738892,vision
2478,17,79,48,3,1971.93288803101,vision
2479,17,80,122,2,1200.31404495239,vision
2480,17,81,73,3,2206.46691322327,vision
2481,17,82,53,2,12802.1469116211,vision
2482,17,84,83,1,5350.64888000488,vision
2483,17,85,2,2,18140.8751010895,vision
2484,17,86,81,3,3217.72694587708,vision
2485,17,90,61,3,2505.20300865173,vision
2486,17,91,99,3,3709.83982086182,vision
2487,17,93,125,2,943.016052246094,vision
2488,17,94,71,2,14706.8490982056,vision
2489,17,97,128,1,22378.0090808868,vision
2490,17,98,126,3,7752.85220146179,vision
2491,17,99,31,3,5363.36493492126,vision
2492,17,100,15,3,3531.50606155396,vision
2493,17,102,18,1,4643.74804496765,vision
2494,17,103,63,1,1636.35420799255,vision
2495,17,106,37,3,5491.26601219177,vision
2496,17,107,21,1,10241.0550117493,vision
2497,17,109,144,3,2684.37886238098,vision
2498,17,111,102,1,1254.41789627075,vision
2499,17,112,97,2,2828.03606987,vision
2500,17,113,60,1,8105.21292686462,vision
2501,17,114,106,1,902.570962905884,vision
2502,17,115,89,3,4328.96900177002,vision
2503,17,118,134,3,1654.99591827393,vision
2504,17,121,39,1,2794.48699951172,vision
2505,17,122,129,3,3156.72898292542,vision
2506,17,123,11,1,14748.0421066284,vision
2507,17,126,56,3,2037.05096244812,vision
2508,17,127,101,3,2797.81985282898,vision
2509,17,129,94,1,3850.71492195129,vision
2510,17,132,93,1,2230.95107078552,vision
2511,17,133,69,1,2554.11005020142,vision
2512,17,139,119,1,1011.51609420776,vision
2513,17,140,44,2,2353.7130355835,vision
2514,17,142,6,2,5756.61015510559,vision
2515,17,143,150,1,9679.63290214539,vision
2516,17,144,139,1,2047.13320732117,vision
2517,17,145,5,3,18077.0199298859,vision
2518,17,148,66,1,1486.48881912231,vision
2519,17,149,51,2,3297.25193977356,vision
2520,17,154,32,3,2413.91801834106,vision
2521,17,156,1,1,15481.4040660858,vision
2522,17,158,19,3,6584.78188514709,vision
2523,17,163,84,1,995.779037475586,vision
2524,17,166,55,3,5952.80289649963,vision
2525,17,170,132,3,2723.13499450684,vision
2526,17,173,87,3,3753.47805023193,vision
2527,17,179,68,1,1287.024974823,vision
2528,17,183,117,3,1239.61806297302,vision
2529,17,186,146,1,2472.26405143738,vision
